"Time (s)"	"Acceleration x (m/s^2)"	"Acceleration y (m/s^2)"	"Acceleration z (m/s^2)"	"Absolute acceleration (m/s^2)"
3.847121800E-2	2.799602449E-1	-4.785645381E-2	9.777072906E0	9.781197401E0
3.966715500E-2	2.871387303E-1	-2.392822690E-2	9.786644936E0	9.790885573E0
4.086309300E-2	2.919243574E-1	-4.785645287E-3	9.793823242E0	9.798174138E0
4.205903000E-2	2.967100143E-1	-4.785645287E-3	9.820143700E0	9.824626304E0
4.325496800E-2	2.919243574E-1	-1.674975827E-2	9.858428955E0	9.862764412E0
4.445095700E-2	2.847459018E-1	-2.871387079E-2	9.899106979E0	9.903243090E0
4.564689500E-2	2.823530734E-1	-2.392822690E-2	9.934999466E0	9.939039702E0
4.684283200E-2	2.823530734E-1	-1.435693540E-2	9.956535339E0	9.960548446E0
4.803877000E-2	2.799602449E-1	-4.785645287E-3	9.973284721E0	9.977214480E0
4.923475900E-2	2.871387303E-1	0.000000000E0	9.980463028E0	9.984592676E0
5.043069700E-2	3.038884699E-1	7.178467698E-3	9.980463028E0	9.985090985E0
5.162663400E-2	3.182454109E-1	1.914258115E-2	9.980463028E0	9.985554007E0
5.282257200E-2	3.254238665E-1	2.153540403E-2	9.968499184E0	9.973832786E0
5.401856100E-2	3.278166950E-1	2.392822690E-2	9.954142570E0	9.959567795E0
5.521449900E-2	3.349951804E-1	2.632104978E-2	9.944570541E0	9.950246119E0
5.641043600E-2	3.373879790E-1	3.828516230E-2	9.937392235E0	9.943191682E0
5.760637400E-2	3.445664644E-1	5.982056633E-2	9.925428391E0	9.931587652E0
5.880231100E-2	3.469592929E-1	6.699903309E-2	9.908679008E0	9.914978029E0
5.999830100E-2	3.517449200E-1	5.742774159E-2	9.891928673E0	9.898347099E0
6.119423900E-2	3.780659735E-1	3.589234129E-2	9.863214493E0	9.870522898E0
6.239017600E-2	4.019941986E-1	2.153540403E-2	9.834501266E0	9.842737336E0
6.358611400E-2	4.139583111E-1	7.178467698E-3	9.817750931E0	9.826476803E0
6.478205100E-2	4.259224236E-1	-1.674975827E-2	9.815358162E0	9.824609219E0
6.597798900E-2	4.546363056E-1	-3.828516230E-2	9.815358162E0	9.825956227E0
6.717392600E-2	4.857429862E-1	-4.067798331E-2	9.810572624E0	9.822674593E0
6.836991600E-2	5.072783828E-1	-3.349951655E-2	9.812965393E0	9.826125553E0
6.956585300E-2	5.335994363E-1	-3.828516230E-2	9.822537422E0	9.837094872E0
7.076179100E-2	5.742774606E-1	-4.546362907E-2	9.846465111E0	9.863302526E0
7.195772800E-2	6.125625968E-1	-5.024927482E-2	9.872786522E0	9.891899293E0
7.315366600E-2	6.364908218E-1	-5.024927482E-2	9.894321442E0	9.914900017E0
7.434965500E-2	6.580262184E-1	-4.546362907E-2	9.925428391E0	9.947320955E0
7.554559300E-2	6.915257573E-1	-3.589234129E-2	9.956535339E0	9.980585759E0
7.674153000E-2	7.250252366E-1	-3.110669367E-2	9.987641335E0	1.001397067E1
7.793746800E-2	7.513462901E-1	-2.871387079E-2	1.002831936E1	1.005646732E1
7.913345700E-2	7.752745152E-1	-2.392822690E-2	1.007139015E1	1.010121392E1
8.032939500E-2	7.872386575E-1	-1.914258115E-2	1.009292603E1	1.012359950E1
8.152533200E-2	7.968099117E-1	-1.196411345E-2	1.010488987E1	1.013626403E1
8.272127000E-2	8.207381964E-1	-4.785645287E-3	1.011924744E1	1.015247767E1
8.391720700E-2	8.614161611E-1	-1.196411345E-2	1.012642574E1	1.016300543E1
8.511319700E-2	8.949156404E-1	-1.674975827E-2	1.012881851E1	1.016828988E1
8.630913400E-2	9.116654396E-1	-2.392822690E-2	1.010967541E1	1.015072624E1
8.750507200E-2	9.308080077E-1	-2.871387079E-2	1.007856941E1	1.012150134E1
8.870100900E-2	9.475577474E-1	-2.632104978E-2	1.004746246E1	1.009207909E1
8.989694700E-2	9.762716293E-1	-1.674975827E-2	9.997213364E0	1.004478282E1
9.109293600E-2	1.009771109E0	-1.674975827E-2	9.944570541E0	9.995719159E0
9.228887400E-2	1.033699393E0	-1.914258115E-2	9.896714211E0	9.950570488E0
9.348481100E-2	1.045663476E0	-1.435693540E-2	9.844072342E0	9.899463546E0
9.468074900E-2	1.043270707E0	-1.435693540E-2	9.789037704E0	9.844484703E0
9.587668600E-2	1.055234790E0	-9.571290575E-3	9.731609344E0	9.788658361E0
9.707262400E-2	1.071984529E0	-1.196411345E-2	9.667003632E0	9.726266148E0
9.826856100E-2	1.076770186E0	-1.435693540E-2	9.604789734E0	9.664969011E0
9.946455100E-2	1.081555843E0	-2.392822644E-3	9.556933403E0	9.617938700E0
1.006604890E-1	1.076770186E0	1.196411345E-2	9.518648148E0	9.579365309E0
1.018564260E-1	1.064806104E0	1.196411345E-2	9.470791817E0	9.530469706E0
1.030523640E-1	1.060020447E0	2.392822644E-3	9.439684868E0	9.499015711E0
1.042483530E-1	1.052842021E0	-1.196411345E-2	9.430113792E0	9.488712536E0
1.054442910E-1	1.033699393E0	-2.632104978E-2	9.418149948E0	9.474744096E0
1.066402280E-1	1.012163997E0	-3.349951655E-2	9.413364410E0	9.467683333E0
1.078361660E-1	9.882357717E-1	-4.546362907E-2	9.415757179E0	9.467584705E0
1.090321030E-1	1.033699393E0	-9.571290761E-2	9.384650230E0	9.441893631E0
1.102280930E-1	1.150947690E0	-1.746760458E-1	9.305686951E0	9.378219550E0
1.114240300E-1	1.241874933E0	-2.249253243E-1	9.231510162E0	9.317382928E0
1.126199680E-1	1.275374413E0	-2.321037948E-1	9.217152596E0	9.307865171E0
1.138159050E-1	1.261017561E0	-2.392822653E-1	9.238688469E0	9.327421183E0
1.150118950E-1	1.205982566E0	-2.488535494E-1	9.274580956E0	9.355969962E0
1.162078320E-1	1.127019525E0	-2.464607358E-1	9.339186668E0	9.410171281E0
1.174037700E-1	1.043270707E0	-2.416750938E-1	9.432506561E0	9.493102793E0
1.185997070E-1	9.643075466E-1	-2.368894368E-1	9.525827408E0	9.577441906E0
1.197956450E-1	8.781659007E-1	-2.392822653E-1	9.602396965E0	9.645437202E0
1.209915820E-1	7.800601721E-1	-2.392822653E-1	9.655039787E0	9.689455257E0
1.221875200E-1	6.915257573E-1	-2.321037948E-1	9.698110580E0	9.725504042E0
1.233834570E-1	6.125625968E-1	-2.321037948E-1	9.741181374E0	9.763181841E0
1.245794470E-1	5.431707501E-1	-2.416750938E-1	9.774680138E0	9.792742880E0
1.257753840E-1	4.809573591E-1	-2.416750938E-1	9.801001549E0	9.815770891E0
1.269713220E-1	4.307080805E-1	-2.321037948E-1	9.832108498E0	9.844274434E0
1.281672590E-1	3.708875179E-1	-2.177468538E-1	9.853643417E0	9.863024883E0
1.293632490E-1	3.134597540E-1	-1.986042857E-1	9.853643417E0	9.860628239E0
1.305591860E-1	2.823530734E-1	-1.914258152E-1	9.844072342E0	9.849981085E0
1.317551240E-1	2.560320199E-1	-1.890329868E-1	9.834501266E0	9.839649436E0
1.329510610E-1	2.297109663E-1	-1.770688742E-1	9.832108498E0	9.836385415E0
1.341469990E-1	2.153540403E-1	-1.603191197E-1	9.824930191E0	9.828597705E0
1.353429890E-1	2.153540403E-1	-1.316052526E-1	9.812965393E0	9.816210425E0
1.365389260E-1	2.153540403E-1	-1.028913707E-1	9.808179855E0	9.811083328E0
1.377348640E-1	2.201396823E-1	-9.332008660E-2	9.812965393E0	9.815877950E0
1.389308010E-1	2.321037948E-1	-7.896314561E-2	9.812965393E0	9.816027565E0
1.401267390E-1	2.416750938E-1	-6.939185411E-2	9.810572624E0	9.813794235E0
1.413226760E-1	2.464607358E-1	-6.939185411E-2	9.808179855E0	9.811521299E0
1.425186140E-1	2.608176768E-1	-6.939185411E-2	9.820143700E0	9.823851758E0
1.437146030E-1	2.703889608E-1	-5.503492057E-2	9.846465111E0	9.850330665E0
1.449105410E-1	2.775674164E-1	-4.546362907E-2	9.870393753E0	9.874400410E0
1.461064780E-1	2.847459018E-1	-4.307080805E-2	9.896714211E0	9.900903367E0
1.473024160E-1	2.775674164E-1	-4.067798331E-2	9.918250084E0	9.922216642E0
1.484984050E-1	2.847459018E-1	-4.307080805E-2	9.930213928E0	9.934388959E0
1.496949160E-1	3.038884699E-1	-3.349951655E-2	9.920642853E0	9.925352640E0
1.508902800E-1	3.302095234E-1	-2.392822690E-2	9.906285286E0	9.911816133E0
1.520862180E-1	3.613162339E-1	-1.914258115E-2	9.901499748E0	9.908108453E0
1.532821550E-1	3.972085714E-1	-9.571290575E-3	9.889535904E0	9.897514165E0
1.544781450E-1	4.307080805E-1	0.000000000E0	9.868000984E0	9.877396057E0
1.556740820E-1	4.522434771E-1	1.435693540E-2	9.836894035E0	9.847294783E0
1.568700200E-1	4.809573591E-1	3.110669367E-2	9.805787086E0	9.817624356E0
1.580659570E-1	5.072783828E-1	4.067798331E-2	9.777072906E0	9.790308508E0
1.592618950E-1	5.312066078E-1	4.307080805E-2	9.748359680E0	9.762917187E0
1.604578840E-1	5.694918036E-1	3.110669367E-2	9.722038269E0	9.738753341E0
1.616538220E-1	6.149554253E-1	1.196411345E-2	9.686145782E0	9.705654714E0
1.628497590E-1	6.795616150E-1	-7.178467698E-3	9.645467758E0	9.669379701E0
1.640456970E-1	7.369893789E-1	-2.392822690E-2	9.619147301E0	9.647368589E0
1.652416860E-1	7.728816867E-1	-3.349951655E-2	9.597611427E0	9.628738932E0
1.664376240E-1	8.015955687E-1	-4.307080805E-2	9.576076508E0	9.609664501E0
1.676335610E-1	8.231309652E-1	-5.024927482E-2	9.566504478E0	9.601982999E0
1.688294990E-1	8.374879360E-1	-5.742774159E-2	9.566504478E0	9.603264649E0
1.700254360E-1	8.350951076E-1	-7.896314561E-2	9.578469276E0	9.615128324E0
1.712214260E-1	8.159525394E-1	-1.052841991E-1	9.585647583E0	9.620888883E0
1.724173640E-1	8.063812256E-1	-1.172483116E-1	9.588040352E0	9.622604410E0
1.736133010E-1	8.015955687E-1	-1.268195957E-1	9.597611427E0	9.631862944E0
1.748092390E-1	7.800601721E-1	-1.459621787E-1	9.607182503E0	9.639904277E0
1.760051760E-1	7.537391186E-1	-1.722832322E-1	9.607182503E0	9.638244644E0
1.772011140E-1	7.226324677E-1	-1.842473447E-1	9.600004196E0	9.628926489E0
1.783970510E-1	6.843472719E-1	-1.890329868E-1	9.592825890E0	9.619063011E0
1.795930410E-1	6.532405615E-1	-1.986042857E-1	9.590433121E0	9.614706149E0
1.807889780E-1	6.125625968E-1	-2.129612118E-1	9.585647583E0	9.607560825E0
1.819849160E-1	5.718846321E-1	-2.249253243E-1	9.559326172E0	9.579058424E0
1.831808530E-1	5.288137794E-1	-2.249253243E-1	9.516255379E0	9.533590711E0
1.843768430E-1	4.666004181E-1	-2.225325108E-1	9.480362892E0	9.494446652E0
1.855727800E-1	4.043870270E-1	-2.225325108E-1	9.454042435E0	9.465303373E0
1.867687180E-1	3.469592929E-1	-2.153540403E-1	9.430113792E0	9.438951438E0
1.879646550E-1	2.967100143E-1	-2.129612118E-1	9.413364410E0	9.420446849E0
1.891605930E-1	2.632105052E-1	-2.129612118E-1	9.403793335E0	9.409886361E0
1.903565820E-1	2.201396823E-1	-2.153540403E-1	9.403793335E0	9.408834568E0
1.915525200E-1	1.722832322E-1	-2.225325108E-1	9.406186104E0	9.410395276E0
1.927484570E-1	1.411765367E-1	-2.225325108E-1	9.406186104E0	9.409877181E0
1.939443950E-1	1.124626622E-1	-2.081755698E-1	9.420542717E0	9.423513676E0
1.951403320E-1	7.896314561E-2	-1.914258152E-1	9.444471359E0	9.446741146E0
1.963363220E-1	5.024927482E-2	-1.770688742E-1	9.470791817E0	9.472580219E0
1.975322590E-1	2.632104978E-2	-1.627119333E-1	9.497113228E0	9.498543448E0
1.987281970E-1	-4.785645287E-3	-1.292124242E-1	9.516255379E0	9.517133769E0
1.999241340E-1	-3.589234129E-2	-8.614161611E-2	9.542576790E0	9.543033083E0
2.011200720E-1	-6.460621208E-2	-5.024927482E-2	9.576076508E0	9.576426277E0
2.023160090E-1	-8.374879509E-2	-7.178467698E-3	9.604789734E0	9.605157532E0
2.035119990E-1	-9.810572863E-2	3.589234129E-2	9.616754532E0	9.617321910E0
2.047079360E-1	-1.148554832E-1	7.417750359E-2	9.626325607E0	9.627296546E0
2.059038740E-1	-1.292124242E-1	9.810572863E-2	9.635896683E0	9.637262343E0
2.070998110E-1	-1.124626622E-1	1.004985496E-1	9.645467758E0	9.646646883E0
2.082957490E-1	-7.178468257E-2	9.332008660E-2	9.645467758E0	9.646186291E0
2.094917390E-1	-3.589234129E-2	8.614161611E-2	9.640682220E0	9.641133871E0
2.106876760E-1	-1.435693540E-2	8.374879509E-2	9.643074989E0	9.643449343E0
2.118836140E-1	2.392822644E-3	8.135596663E-2	9.640682220E0	9.641025785E0
2.130795510E-1	2.632104978E-2	7.417750359E-2	9.631111145E0	9.631432759E0
2.142754890E-1	6.460621208E-2	6.939185411E-2	9.626325607E0	9.626792503E0
2.154714780E-1	1.100698411E-1	6.221338734E-2	9.628718376E0	9.629548455E0
2.166674160E-1	1.531406492E-1	4.307080805E-2	9.633503914E0	9.634817321E0
2.178633530E-1	1.938186288E-1	1.435693540E-2	9.640682220E0	9.642641000E0
2.190592910E-1	2.440679073E-1	-1.196411345E-2	9.655039787E0	9.658131578E0
2.202552280E-1	2.967100143E-1	-3.589234129E-2	9.662218094E0	9.666839379E0
2.214512180E-1	3.445664644E-1	-6.460621208E-2	9.669396400E0	9.675749416E0
2.226471550E-1	3.828516304E-1	-9.332008660E-2	9.671789169E0	9.679813518E0
2.238430930E-1	4.019941986E-1	-1.268195957E-1	9.667003632E0	9.676189423E0
2.250390300E-1	4.259224236E-1	-1.603191197E-1	9.655039787E0	9.665759433E0
2.262349680E-1	4.546363056E-1	-1.818545163E-1	9.635896683E0	9.648329913E0
2.274309570E-1	4.785645306E-1	-2.009970993E-1	9.614361763E0	9.628363098E0
2.286268950E-1	4.833501875E-1	-2.297109663E-1	9.590433121E0	9.605352777E0
2.298228320E-1	4.761717021E-1	-2.560320199E-1	9.571290970E0	9.586548008E0
2.310187700E-1	4.809573591E-1	-2.823530734E-1	9.559326172E0	9.575581450E0
2.322147070E-1	4.953143001E-1	-3.014956415E-1	9.554540634E0	9.572120069E0
2.334106450E-1	5.048855543E-1	-3.254238665E-1	9.542576790E0	9.561463377E0
2.346065820E-1	5.096712112E-1	-3.517449200E-1	9.528220177E0	9.548322835E0
2.358025200E-1	5.168496966E-1	-3.780659735E-1	9.516255379E0	9.537776676E0
2.369985090E-1	5.096712112E-1	-3.996013701E-1	9.511469841E0	9.533493826E0
2.381944470E-1	4.498506486E-1	-4.067798555E-1	9.501898766E0	9.521234983E0
2.393903840E-1	2.464607358E-1	-3.732803464E-1	9.482755661E0	9.493299534E0
2.405863740E-1	-3.110669367E-2	-3.349951804E-1	9.494720459E0	9.500679238E0
2.417823110E-1	-2.392822653E-1	-3.206382394E-1	9.504291534E0	9.512708471E0
2.429782490E-1	-3.876372576E-1	-3.134597540E-1	9.516255379E0	9.529304072E0
2.441741860E-1	-4.905286431E-1	-3.206382394E-1	9.549755096E0	9.567719145E0
2.453701240E-1	-5.359922647E-1	-3.302095234E-1	9.580862045E0	9.601522982E0
2.465661140E-1	-5.359922647E-1	-3.373879790E-1	9.604789734E0	9.625648248E0
2.477620510E-1	-5.503492355E-1	-3.278166950E-1	9.602396965E0	9.623740205E0
2.489579890E-1	-5.742774606E-1	-2.967100143E-1	9.566504478E0	9.588317859E0
2.501539260E-1	-5.982056856E-1	-2.536391914E-1	9.518648148E0	9.540798994E0
2.513498640E-1	-6.293123364E-1	-1.938186288E-1	9.482755661E0	9.505590703E0
2.525458530E-1	-6.340979934E-1	-1.483550072E-1	9.461220741E0	9.483606244E0
2.537417910E-1	-5.958128572E-1	-1.220339537E-1	9.456435204E0	9.475972351E0
2.549377280E-1	-5.024927258E-1	-8.853443712E-2	9.456435204E0	9.470190286E0
2.561336660E-1	-3.756731451E-1	-6.460621208E-2	9.442078590E0	9.449769964E0
2.573296030E-1	-2.727817893E-1	-3.349951655E-2	9.418149948E0	9.422159018E0
2.585255930E-1	-1.698904037E-1	-7.178467698E-3	9.408578873E0	9.410115338E0
2.597215300E-1	-7.417750359E-2	7.178467698E-3	9.408578873E0	9.408874015E0
2.609174680E-1	4.785645287E-3	1.914258115E-2	9.408578873E0	9.408599563E0
2.621134050E-1	8.614161611E-2	2.632104978E-2	9.422935486E0	9.423365978E0
2.633093430E-1	1.698904037E-1	3.110669367E-2	9.470791817E0	9.472366548E0
2.645052800E-1	2.344966233E-1	3.589234129E-2	9.535398483E0	9.538348975E0
2.657012180E-1	2.895315289E-1	3.349951655E-2	9.592825890E0	9.597252694E0
2.668972070E-1	3.397808075E-1	1.914258115E-2	9.645467758E0	9.651469614E0
2.680931450E-1	3.804588020E-1	1.196411345E-2	9.700503349E0	9.707968751E0
2.692890820E-1	4.259224236E-1	-2.392822644E-3	9.748359680E0	9.757660175E0
2.704850200E-1	4.785645306E-1	-3.110669367E-2	9.789037704E0	9.800778072E0
2.716810090E-1	5.503492355E-1	-6.460621208E-2	9.815358162E0	9.830987442E0
2.728769470E-1	6.221339107E-1	-1.028913707E-1	9.829715729E0	9.849921246E0
2.740728840E-1	6.843472719E-1	-1.363908947E-1	9.839286804E0	9.864000126E0
2.752688220E-1	7.345965505E-1	-1.579262912E-1	9.848857880E0	9.877478137E0
2.764648110E-1	7.776673436E-1	-1.770688742E-1	9.858428955E0	9.890639077E0
2.776607490E-1	8.279166222E-1	-1.938186288E-1	9.868000984E0	9.904567382E0
2.788566860E-1	8.662018180E-1	-2.033899277E-1	9.882357597E0	9.922331618E0
2.800526240E-1	8.925228715E-1	-2.081755698E-1	9.911071777E0	9.953355109E0
2.812485610E-1	9.164510965E-1	-2.201396823E-1	9.949356079E0	9.993899663E0
2.824444990E-1	9.308080077E-1	-2.297109663E-1	9.982855797E0	1.002878759E1
2.836404890E-1	9.332008362E-1	-2.057827413E-1	1.001635551E1	1.006183821E1
2.848364260E-1	9.379864931E-1	-1.818545163E-1	1.005464077E1	1.009993518E1
2.860323640E-1	9.403793216E-1	-1.627119333E-1	1.008814049E1	1.013318148E1
2.872283010E-1	9.475577474E-1	-1.507478207E-1	1.011924744E1	1.016463277E1
2.884242390E-1	9.547362328E-1	-1.387837082E-1	1.014796066E1	1.019371806E1
2.896202280E-1	9.523434043E-1	-1.244267747E-1	1.017428207E1	1.021951348E1
2.908161660E-1	9.332008362E-1	-1.316052526E-1	1.019581699E1	1.023928063E1
2.920121030E-1	9.140582681E-1	-1.363908947E-1	1.021017456E1	1.025191541E1
2.932080410E-1	9.044869542E-1	-1.387837082E-1	1.021256733E1	1.025348180E1
2.944039780E-1	8.949156404E-1	-1.387837082E-1	1.021496010E1	1.025502534E1
2.955999160E-1	8.949156404E-1	-1.316052526E-1	1.021256733E1	1.025254726E1
2.967959050E-1	8.877372146E-1	-1.363908947E-1	1.020299530E1	1.024245053E1
2.979918430E-1	8.829515576E-1	-1.603191197E-1	1.018624592E1	1.022569859E1
2.991877800E-1	8.709874153E-1	-1.818545163E-1	1.016710377E1	1.020596341E1
3.003837180E-1	8.590233326E-1	-2.033899277E-1	1.014796066E1	1.018628461E1
3.015797070E-1	8.685946465E-1	-2.201396823E-1	1.013360405E1	1.017314352E1
3.027756450E-1	8.781659007E-1	-2.273181528E-1	1.013121128E1	1.017173982E1
3.039715820E-1	8.757730722E-1	-2.249253243E-1	1.012881851E1	1.016909703E1
3.051675200E-1	8.709874153E-1	-2.249253243E-1	1.012881851E1	1.016868600E1
3.063634570E-1	8.829515576E-1	-2.321037948E-1	1.013121128E1	1.017226217E1
3.075593950E-1	8.949156404E-1	-2.392822653E-1	1.014078236E1	1.018300529E1
3.087553840E-1	9.044869542E-1	-2.536391914E-1	1.016231823E1	1.020564262E1
3.099513220E-1	9.284151793E-1	-2.679961324E-1	1.017906761E1	1.022483223E1
3.111472590E-1	9.499505758E-1	-2.823530734E-1	1.018624592E1	1.023434098E1
3.123431970E-1	9.690931439E-1	-3.014956415E-1	1.020299530E1	1.025334844E1
3.135391340E-1	9.858429432E-1	-3.278166950E-1	1.021974564E1	1.027241700E1
3.147351240E-1	9.954141974E-1	-3.637090325E-1	1.023170948E1	1.028644801E1
3.159310610E-1	9.930213690E-1	-3.996013701E-1	1.024606609E1	1.030182717E1
3.171269990E-1	1.007378340E0	-4.307080805E-1	1.026520920E1	1.032350912E1
3.183229360E-1	1.028913736E0	-4.642075896E-1	1.029631615E1	1.035800552E1
3.195188740E-1	1.045663476E0	-5.024927258E-1	1.032742214E1	1.039237986E1
3.207148640E-1	1.062413216E0	-5.359922647E-1	1.034656525E1	1.041476941E1
3.219108010E-1	1.079162955E0	-5.694918036E-1	1.035613632E1	1.042777412E1
3.231067390E-1	1.100698471E0	-6.029912829E-1	1.036092186E1	1.043665834E1
3.243026760E-1	1.122233868E0	-6.245267391E-1	1.035374355E1	1.043309389E1
3.254986140E-1	1.134197950E0	-6.388836503E-1	1.033460140E1	1.041626437E1
3.266946030E-1	1.131805062E0	-6.484549642E-1	1.030588722E1	1.038810801E1
3.278905410E-1	1.124626637E0	-6.412764788E-1	1.026760197E1	1.034889708E1
3.290864780E-1	1.110269666E0	-6.269195080E-1	1.022453117E1	1.030372576E1
3.302824160E-1	1.093519926E0	-6.173482537E-1	1.018624592E1	1.026335767E1
3.314783530E-1	1.088734269E0	-6.053841114E-1	1.015035343E1	1.022651001E1
3.326742910E-1	1.069591761E0	-5.862415433E-1	1.010967541E1	1.018298790E1
3.338702800E-1	1.048056364E0	-5.670989752E-1	1.006181908E1	1.013213830E1
3.350662180E-1	1.031306505E0	-5.575276613E-1	1.001156998E1	1.007997835E1
3.362621550E-1	1.002592683E0	-5.599204898E-1	9.966106415E0	1.003204765E1
3.374580930E-1	9.619147182E-1	-5.575276613E-1	9.923035622E0	9.985126587E0
3.386540300E-1	9.212366939E-1	-5.503492355E-1	9.879964828E0	9.938071560E0
3.398500200E-1	8.925228715E-1	-5.479564071E-1	9.844072342E0	9.899626941E0
3.410459570E-1	8.709874153E-1	-5.479564071E-1	9.810572624E0	9.864391036E0
3.422418950E-1	8.350951076E-1	-5.359922647E-1	9.781859398E0	9.832062084E0
3.434378320E-1	7.896314859E-1	-5.216353536E-1	9.755537987E0	9.801333722E0
3.446337700E-1	7.417750359E-1	-5.072783828E-1	9.736394882E0	9.777778217E0
3.458297590E-1	6.963114142E-1	-4.953143001E-1	9.726823807E0	9.764286313E0
3.470256970E-1	6.652047038E-1	-4.809573591E-1	9.710074425E0	9.744709468E0
3.482216340E-1	6.412764788E-1	-4.618147612E-1	9.683753014E0	9.715944670E0
3.494175720E-1	6.125625968E-1	-4.402793646E-1	9.650253296E0	9.679693566E0
3.506135090E-1	5.838487148E-1	-4.235295951E-1	9.614361763E0	9.641380023E0
3.518094990E-1	5.527420044E-1	-4.139583111E-1	9.580862045E0	9.605717190E0
3.530054360E-1	5.168496966E-1	-4.043870270E-1	9.552147865E0	9.574664032E0
3.542013740E-1	4.809573591E-1	-3.996013701E-1	9.537791252E0	9.558266747E0
3.553973110E-1	4.618147612E-1	-3.972085714E-1	9.533005714E0	9.552447093E0
3.565932490E-1	4.450650215E-1	-4.043870270E-1	9.540184021E0	9.559117265E0
3.577892390E-1	4.259224236E-1	-4.187439680E-1	9.552147865E0	9.570803794E0
3.589851760E-1	4.139583111E-1	-4.211367965E-1	9.559326172E0	9.577548462E0
3.601811140E-1	3.972085714E-1	-4.307080805E-1	9.580862045E0	9.598760422E0
3.613770510E-1	3.852444589E-1	-4.426721931E-1	9.611968994E0	9.629866038E0
3.625729890E-1	3.732803464E-1	-4.426721931E-1	9.647860527E0	9.665221655E0
3.637689780E-1	3.708875179E-1	-4.331009090E-1	9.683753014E0	9.700526088E0
3.649649160E-1	3.780659735E-1	-4.331009090E-1	9.712467194E0	9.729467060E0
3.661608530E-1	3.780659735E-1	-4.426721931E-1	9.748359680E0	9.765726241E0
3.673567910E-1	3.708875179E-1	-4.450650215E-1	9.769894600E0	9.787056806E0
3.685527280E-1	3.828516304E-1	-4.235295951E-1	9.789037704E0	9.805672433E0
3.697487180E-1	3.972085714E-1	-3.924229145E-1	9.805787086E0	9.821671486E0
3.709446550E-1	3.972085714E-1	-3.637090325E-1	9.808179855E0	9.822955308E0
3.721405930E-1	3.852444589E-1	-3.230310678E-1	9.810572624E0	9.823446319E0
3.733365300E-1	3.637090325E-1	-2.847459018E-1	9.812965393E0	9.823830938E0
3.745324680E-1	3.254238665E-1	-2.512463629E-1	9.812965393E0	9.821573969E0
3.757284050E-1	2.895315289E-1	-2.225325108E-1	9.824930191E0	9.831714117E0
3.769243950E-1	2.608176768E-1	-1.962114573E-1	9.834501266E0	9.839915648E0
3.781203320E-1	2.297109663E-1	-1.866401732E-1	9.841679573E0	9.846129113E0
3.793162700E-1	2.249253243E-1	-1.962114573E-1	9.851250648E0	9.855771389E0
3.805122070E-1	2.464607358E-1	-2.105683982E-1	9.858428955E0	9.863757063E0
3.817081450E-1	2.703889608E-1	-2.297109663E-1	9.860821724E0	9.867202359E0
3.829041340E-1	3.038884699E-1	-2.488535494E-1	9.865608215E0	9.873424013E0
3.841000720E-1	3.421736360E-1	-2.727817893E-1	9.875179291E0	9.884870193E0
3.852960090E-1	3.541377485E-1	-2.991028428E-1	9.884750366E0	9.895613465E0
3.864919470E-1	3.589234054E-1	-3.254238665E-1	9.889535904E0	9.901396220E0
3.876878840E-1	3.756731451E-1	-3.349951804E-1	9.894321442E0	9.907116072E0
3.888838740E-1	3.804588020E-1	-3.421736360E-1	9.920642853E0	9.933830395E0
3.900798110E-1	3.876372576E-1	-3.421736360E-1	9.944570541E0	9.958003248E0
3.912757490E-1	3.924229145E-1	-3.302095234E-1	9.963713646E0	9.976904514E0
3.924716860E-1	3.900300860E-1	-3.230310678E-1	9.992427826E0	1.000525294E1
3.936676240E-1	4.019941986E-1	-3.254238665E-1	1.001874828E1	1.003208937E1
3.948636140E-1	4.163511395E-1	-3.230310678E-1	1.004267693E1	1.005649328E1
3.960595510E-1	4.283152521E-1	-3.182454109E-1	1.006421185E1	1.007834779E1
3.972554890E-1	4.450650215E-1	-3.134597540E-1	1.007856941E1	1.009326019E1
3.984514260E-1	4.498506486E-1	-3.062812984E-1	1.008814049E1	1.010280913E1
3.996473640E-1	4.474578202E-1	-2.991028428E-1	1.010728264E1	1.012160281E1
4.008433010E-1	4.402793646E-1	-3.014956415E-1	1.012881851E1	1.014286498E1
4.020392910E-1	4.402793646E-1	-3.062812984E-1	1.014078236E1	1.015495549E1
4.032352280E-1	4.522434771E-1	-3.110669553E-1	1.014078236E1	1.015562670E1
4.044311660E-1	4.570291340E-1	-3.182454109E-1	1.014556789E1	1.016084168E1
4.056271030E-1	4.689932466E-1	-3.230310678E-1	1.014796066E1	1.016392687E1
4.068230410E-1	4.689932466E-1	-3.254238665E-1	1.014796066E1	1.016400320E1
4.080190300E-1	4.689932466E-1	-3.230310678E-1	1.015035343E1	1.016631588E1
4.092149680E-1	4.881358147E-1	-3.206382394E-1	1.013360405E1	1.015041952E1
4.104109050E-1	4.977070987E-1	-3.206382394E-1	1.011206818E1	1.012938518E1
4.116068430E-1	5.048855543E-1	-3.230310678E-1	1.010010433E1	1.011787359E1
4.128027800E-1	5.144568682E-1	-3.206382394E-1	1.007378292E1	1.009200560E1
4.139987700E-1	5.192425251E-1	-3.110669553E-1	1.004985523E1	1.006806663E1
4.151947070E-1	5.264210105E-1	-2.943171859E-1	1.003789139E1	1.005599350E1
4.163906450E-1	5.288137794E-1	-2.799602449E-1	1.003310490E1	1.005093108E1
4.175865820E-1	5.264210105E-1	-2.608176768E-1	1.004028416E1	1.005745748E1
4.187825200E-1	5.264210105E-1	-2.249253243E-1	1.005464077E1	1.007092406E1
4.199785090E-1	5.192425251E-1	-1.890329868E-1	1.006660461E1	1.008175951E1
4.211744470E-1	4.929214716E-1	-1.651047617E-1	1.008096218E1	1.009435633E1
4.223703840E-1	4.594219327E-1	-1.268195957E-1	1.009531879E1	1.010656288E1
4.235663220E-1	4.307080805E-1	-9.571290761E-2	1.011206818E1	1.012168925E1
4.247622590E-1	3.972085714E-1	-8.374879509E-2	1.011924744E1	1.012738649E1
4.259581970E-1	3.637090325E-1	-7.417750359E-2	1.012403297E1	1.013083561E1
4.271541860E-1	3.349951804E-1	-6.460621208E-2	1.013121128E1	1.013695407E1
4.283501240E-1	3.230310678E-1	-5.982056633E-2	1.012403297E1	1.012936184E1
4.295460610E-1	3.230310678E-1	-6.460621208E-2	1.011446095E1	1.011982427E1
4.307419990E-1	3.326023519E-1	-8.374879509E-2	1.010488987E1	1.011070905E1
4.319379360E-1	3.517449200E-1	-9.092725813E-2	1.008096218E1	1.008750667E1
4.331339260E-1	3.684946895E-1	-8.853443712E-2	1.004746246E1	1.005460733E1
4.343298640E-1	3.948157430E-1	-1.004985496E-1	1.000439167E1	1.001268356E1
4.355258010E-1	4.307080805E-1	-1.196411327E-1	9.958928108E0	9.968955438E0
4.367217390E-1	4.642075896E-1	-1.411765367E-1	9.918250084E0	9.930110988E0
4.379176760E-1	5.072783828E-1	-1.770688742E-1	9.870393753E0	9.885006706E0
4.391136660E-1	5.527420044E-1	-2.153540403E-1	9.822537422E0	9.840434060E0
4.403096030E-1	5.982056856E-1	-2.440679073E-1	9.774680138E0	9.796008931E0
4.415055410E-1	6.412764788E-1	-2.751746178E-1	9.729216576E0	9.754209951E0
4.427014780E-1	7.010970116E-1	-3.062812984E-1	9.681360245E0	9.711543721E0
4.438974160E-1	7.513462901E-1	-3.254238665E-1	9.631111145E0	9.665853497E0
4.450934050E-1	8.015955687E-1	-3.541377485E-1	9.573683739E0	9.613708407E0
4.462893430E-1	8.494520187E-1	-3.876372576E-1	9.521040916E0	9.566715816E0
4.474852800E-1	8.805587292E-1	-4.067798555E-1	9.475577354E0	9.525094211E0
4.486812180E-1	9.044869542E-1	-4.139583111E-1	9.439684868E0	9.491949670E0
4.498771550E-1	9.332008362E-1	-4.187439680E-1	9.432506561E0	9.487802187E0
4.510731450E-1	9.738788009E-1	-4.235295951E-1	9.420542717E0	9.480213200E0
4.522690820E-1	1.012163997E0	-4.378865361E-1	9.394221306E0	9.458732183E0
4.534650200E-1	1.060020447E0	-4.426721931E-1	9.370293617E0	9.440445143E0
4.546609570E-1	1.107876897E0	-4.354937077E-1	9.339186668E0	9.414746604E0
4.558568950E-1	1.148554921E0	-4.259224236E-1	9.312865257E0	9.393085096E0
4.570528320E-1	1.182054400E0	-4.115654826E-1	9.286544800E0	9.370515091E0
4.582488220E-1	1.208375454E0	-4.019941986E-1	9.269794464E0	9.356861652E0
4.594447590E-1	1.234696507E0	-3.852444589E-1	9.260223389E0	9.350113687E0
4.606406970E-1	1.249053478E0	-3.613162339E-1	9.255437851E0	9.346326221E0
4.618366340E-1	1.241874933E0	-3.278166950E-1	9.269794464E0	9.358354906E0
4.630325720E-1	1.203589797E0	-2.895315289E-1	9.312865257E0	9.394781328E0
4.642285610E-1	1.141376376E0	-2.560320199E-1	9.375079155E0	9.447772308E0
4.654244990E-1	1.076770186E0	-2.201396823E-1	9.463613510E0	9.527217652E0
4.666204360E-1	1.007378340E0	-1.962114573E-1	9.561718941E0	9.616640742E0
4.678163740E-1	9.284151793E-1	-1.890329868E-1	9.671789169E0	9.718085920E0
4.690123110E-1	8.422735929E-1	-1.674975902E-1	9.793823242E0	9.831401423E0
4.702083010E-1	7.513462901E-1	-1.411765367E-1	9.915857315E0	9.945284227E0
4.714042390E-1	6.580262184E-1	-1.220339537E-1	1.003310490E1	1.005540077E1
4.726001760E-1	5.623133183E-1	-1.076770201E-1	1.013838959E1	1.015454253E1
4.737961140E-1	4.761717021E-1	-9.810572863E-2	1.022453117E1	1.023608333E1
4.749920510E-1	3.972085714E-1	-9.332008660E-2	1.029631615E1	1.030439758E1
4.761880410E-1	3.278166950E-1	-7.657032460E-2	1.034417248E1	1.034964884E1
4.773839780E-1	2.703889608E-1	-5.503492057E-2	1.038245773E1	1.038612380E1
4.785799160E-1	2.249253243E-1	-3.589234129E-2	1.042074299E1	1.042323194E1
4.797758530E-1	1.842473447E-1	-9.571290575E-3	1.045424175E1	1.045586961E1
4.809717910E-1	1.483550072E-1	1.435693540E-2	1.047577763E1	1.047683789E1
4.821677800E-1	1.148554832E-1	3.110669367E-2	1.048534870E1	1.048602388E1
4.833637180E-1	8.614161611E-2	4.307080805E-2	1.048774147E1	1.048818367E1
4.845596550E-1	7.417750359E-2	5.024927482E-2	1.048295593E1	1.048333880E1
4.857555930E-1	7.178468257E-2	4.307080805E-2	1.046620655E1	1.046654134E1
4.869515300E-1	5.742774159E-2	2.392822690E-2	1.043270683E1	1.043289233E1
4.881474680E-1	4.067798331E-2	7.178467698E-3	1.039202881E1	1.039211090E1
4.893434570E-1	4.067798331E-2	-1.435693540E-2	1.034656525E1	1.034665517E1
4.905393950E-1	4.546362907E-2	-3.110669367E-2	1.026520920E1	1.026535701E1
4.917353320E-1	3.589234129E-2	-5.024927482E-2	1.016231823E1	1.016250585E1
4.929312700E-1	3.828516230E-2	-7.417750359E-2	1.006660461E1	1.006695071E1
4.941272070E-1	6.221338734E-2	-7.896314561E-2	9.961320877E0	9.961828110E0
4.953231970E-1	7.896314561E-2	-7.417750359E-2	9.851250648E0	9.851846366E0
4.965191340E-1	1.052841991E-1	-6.699903309E-2	9.750752449E0	9.751551003E0
4.977150720E-1	1.507478207E-1	-5.982056633E-2	9.655039787E0	9.656401851E0
4.989110090E-1	1.914258152E-1	-5.982056633E-2	9.561718941E0	9.563822010E0
5.001069470E-1	2.297109663E-1	-6.460621208E-2	9.477970123E0	9.480973513E0
5.013029360E-1	2.799602449E-1	-6.939185411E-2	9.399007797E0	9.403432381E0
5.024988740E-1	3.421736360E-1	-5.982056633E-2	9.336793900E0	9.343253267E0
5.036948110E-1	3.972085714E-1	-4.546362907E-2	9.279366493E0	9.287975243E0
5.048907490E-1	4.378865361E-1	-3.110669367E-2	9.241081238E0	9.251502294E0
5.060866860E-1	4.785645306E-1	-1.914258115E-2	9.236295700E0	9.248705245E0
5.072826760E-1	5.144568682E-1	-2.392822690E-2	9.233902931E0	9.248253985E0
5.084786140E-1	5.455635786E-1	-4.067798331E-2	9.248259544E0	9.264426529E0
5.096745510E-1	5.742774606E-1	-5.024927482E-2	9.276973724E0	9.294867459E0
5.108704890E-1	5.934200287E-1	-5.982056633E-2	9.305686951E0	9.324780719E0
5.120664260E-1	6.197410822E-1	-8.614161611E-2	9.329615593E0	9.350573592E0
5.132623640E-1	6.364908218E-1	-1.076770201E-1	9.351150513E0	9.373405508E0
5.144583530E-1	6.245267391E-1	-1.220339537E-1	9.377471924E0	9.399037483E0
5.156542910E-1	6.149554253E-1	-1.316052526E-1	9.399007797E0	9.420023232E0
5.168502280E-1	6.101697683E-1	-1.435693651E-1	9.425328255E0	9.446149058E0
5.180461660E-1	5.862415433E-1	-1.651047617E-1	9.442078590E0	9.461701054E0
5.192421030E-1	5.623133183E-1	-1.794617027E-1	9.470791817E0	9.489167530E0
5.204380930E-1	5.551348329E-1	-1.938186288E-1	9.504291534E0	9.522462807E0
5.216340300E-1	5.599204898E-1	-2.129612118E-1	9.521040916E0	9.539868110E0
5.228299680E-1	5.766702294E-1	-2.440679073E-1	9.537791252E0	9.558325150E0
5.240259050E-1	5.982056856E-1	-2.895315289E-1	9.554540634E0	9.577626286E0
5.252218430E-1	6.077769399E-1	-3.349951804E-1	9.561718941E0	9.586870380E0
5.264178320E-1	6.149554253E-1	-3.637090325E-1	9.559326172E0	9.585988280E0
5.276137700E-1	6.293123364E-1	-3.876372576E-1	9.566504478E0	9.595014570E0
5.288097070E-1	6.580262184E-1	-4.259224236E-1	9.573683739E0	9.605718544E0
5.300056450E-1	6.867401004E-1	-4.689932466E-1	9.580862045E0	9.616885367E0
5.312015820E-1	7.154539824E-1	-5.072783828E-1	9.609575272E0	9.649515152E0
5.323975720E-1	7.417750359E-1	-5.527420044E-1	9.652647018E0	9.696873124E0
5.335935090E-1	7.513462901E-1	-5.886343718E-1	9.695717812E0	9.742584644E0
5.347894470E-1	7.465606928E-1	-6.125625968E-1	9.741181374E0	9.788932544E0
5.359853840E-1	7.417750359E-1	-6.364908218E-1	9.796216011E0	9.844856470E0
5.371813220E-1	7.298108935E-1	-6.580262184E-1	9.856036186E0	9.904901400E0
5.383772590E-1	7.154539824E-1	-6.652047038E-1	9.918250084E0	9.966245854E0
5.395732490E-1	7.082754970E-1	-6.652047038E-1	9.982855797E0	1.003003297E1
5.407691860E-1	6.915257573E-1	-6.628118753E-1	1.004985523E1	1.009540082E1
5.419651240E-1	6.795616150E-1	-6.556333899E-1	1.011685371E1	1.016082616E1
5.431610610E-1	6.628118753E-1	-6.388836503E-1	1.017188931E1	1.021346288E1
5.443569990E-1	6.412764788E-1	-6.245267391E-1	1.023649502E1	1.027555835E1
5.455529890E-1	6.412764788E-1	-5.910272002E-1	1.029631615E1	1.033318319E1
5.467489260E-1	6.412764788E-1	-5.503492355E-1	1.034177971E1	1.037624823E1
5.479448640E-1	6.269195080E-1	-5.216353536E-1	1.038963604E1	1.042159626E1
5.491408010E-1	6.173482537E-1	-4.929214716E-1	1.043988514E1	1.046973219E1
5.503367390E-1	5.934200287E-1	-4.666004181E-1	1.048056316E1	1.050771467E1
5.515327280E-1	5.575276613E-1	-4.378865361E-1	1.050209904E1	1.052599952E1
5.527286660E-1	5.455635786E-1	-4.067798555E-1	1.051167011E1	1.053367543E1
5.539246030E-1	5.335994363E-1	-3.684946895E-1	1.052363396E1	1.054359466E1
5.551205410E-1	5.120640397E-1	-3.373879790E-1	1.053799057E1	1.055581761E1
5.563164780E-1	4.977070987E-1	-3.062812984E-1	1.055474091E1	1.057090707E1
5.575124680E-1	4.833501875E-1	-2.584248483E-1	1.056431198E1	1.057852062E1
5.587084050E-1	4.689932466E-1	-2.105683982E-1	1.055952644E1	1.057203350E1
5.599043430E-1	4.618147612E-1	-1.674975902E-1	1.054516983E1	1.055660623E1
5.611002800E-1	4.331009090E-1	-1.220339537E-1	1.050927734E1	1.051890579E1
5.622962180E-1	4.115654826E-1	-8.374879509E-2	1.045424175E1	1.046267512E1
5.634922070E-1	4.307080805E-1	-5.503492057E-2	1.040159988E1	1.041065889E1
5.646881450E-1	4.522434771E-1	-2.871387079E-2	1.035613632E1	1.036604593E1
5.658840820E-1	4.666004181E-1	-4.785645287E-3	1.031785107E1	1.032839724E1
5.670800200E-1	4.737788737E-1	2.392822690E-2	1.027956581E1	1.029050593E1
5.682759570E-1	4.881358147E-1	3.349951655E-2	1.025085258E1	1.026252296E1
5.694718950E-1	5.216353536E-1	2.871387079E-2	1.021735287E1	1.023070025E1
5.706678840E-1	5.575276613E-1	2.632104978E-2	1.016949654E1	1.018480190E1
5.718638220E-1	5.934200287E-1	2.392822690E-2	1.011446095E1	1.013188236E1
5.730597590E-1	6.293123364E-1	2.153540403E-2	1.005703354E1	1.007672672E1
5.742556970E-1	6.580262184E-1	1.674975827E-2	1.000678444E1	1.002841034E1
5.754516340E-1	6.747759581E-1	1.674975827E-2	9.956535339E0	9.979388714E0
5.766476240E-1	6.819544435E-1	2.871387079E-2	9.899106979E0	9.922610813E0
5.778435610E-1	6.795616150E-1	4.546362907E-2	9.846465111E0	9.869992204E0
5.790394990E-1	6.747759581E-1	7.178468257E-2	9.815358162E0	9.838787094E0
5.802354360E-1	6.580262184E-1	9.571290761E-2	9.796216011E0	9.818757946E0
5.814313740E-1	6.412764788E-1	1.148554832E-1	9.789037704E0	9.810692457E0
5.826273640E-1	6.197410822E-1	1.292124242E-1	9.789037704E0	9.809486941E0
5.838233010E-1	5.790630579E-1	1.459621787E-1	9.796216011E0	9.814401007E0
5.850192390E-1	5.312066078E-1	1.579262912E-1	9.812965393E0	9.828601680E0
5.862151760E-1	5.000999570E-1	1.579262912E-1	9.832108498E0	9.846085425E0
5.874111140E-1	4.785645306E-1	1.603191197E-1	9.851250648E0	9.864170800E0
5.886071030E-1	4.546363056E-1	1.531406492E-1	9.858428955E0	9.870094614E0
5.898030410E-1	4.378865361E-1	1.507478207E-1	9.875179291E0	9.886032346E0
5.909989780E-1	4.187439680E-1	1.435693651E-1	9.891928673E0	9.901828697E0
5.921949160E-1	4.043870270E-1	1.220339537E-1	9.891928673E0	9.900943087E0
5.933908530E-1	4.091726840E-1	1.004985496E-1	9.887143135E0	9.896116492E0
5.945868430E-1	4.259224236E-1	8.374879509E-2	9.877572060E0	9.887105419E0
5.957827800E-1	4.331009090E-1	6.221338734E-2	9.860821724E0	9.870524402E0
5.969787180E-1	4.378865361E-1	4.785645381E-2	9.851250648E0	9.861093966E0
5.981746550E-1	4.666004181E-1	2.871387079E-2	9.846465111E0	9.857556270E0
5.993705930E-1	5.072783828E-1	4.785645287E-3	9.824930191E0	9.838018475E0
6.005665300E-1	5.264210105E-1	-1.435693540E-2	9.798608780E0	9.812749830E0
6.017625200E-1	5.455635786E-1	-3.828516230E-2	9.779465675E0	9.794746258E0
6.029584570E-1	5.718846321E-1	-6.460621208E-2	9.765109062E0	9.782054027E0
6.041543950E-1	5.958128572E-1	-7.896314561E-2	9.750752449E0	9.769257979E0
6.053503320E-1	6.029912829E-1	-8.374879509E-2	9.731609344E0	9.750632430E0
6.065462700E-1	6.149554253E-1	-8.853443712E-2	9.717252731E0	9.737094493E0
6.077422590E-1	6.364908218E-1	-9.810572863E-2	9.719645500E0	9.740957548E0
6.089381970E-1	6.460621357E-1	-8.853443712E-2	9.731609344E0	9.753432989E0
6.101341340E-1	6.388836503E-1	-7.657032460E-2	9.745966911E0	9.767185181E0
6.113300720E-1	6.317051649E-1	-8.374879509E-2	9.769894600E0	9.790654001E0
6.125260090E-1	6.388836503E-1	-9.332008660E-2	9.803394318E0	9.824633383E0
6.137219990E-1	6.508477330E-1	-8.853443712E-2	9.832108498E0	9.854024489E0
6.149179360E-1	6.795616150E-1	-8.853443712E-2	9.853643417E0	9.877445567E0
6.161138740E-1	7.178468108E-1	-9.092725813E-2	9.868000984E0	9.894494188E0
6.173098110E-1	7.489534616E-1	-8.853443712E-2	9.868000984E0	9.896777913E0
6.185057490E-1	7.800601721E-1	-8.374879509E-2	9.853643417E0	9.884826571E0
6.197016860E-1	8.207381964E-1	-7.896314561E-2	9.820143700E0	9.854697796E0
6.208976760E-1	8.638089895E-1	-7.896314561E-2	9.784252167E0	9.822626513E0
6.220936140E-1	8.901300430E-1	-8.135596663E-2	9.769894600E0	9.810697772E0
6.232895510E-1	9.140582681E-1	-8.135596663E-2	9.748359680E0	9.791457387E0
6.244854890E-1	9.403793216E-1	-9.332008660E-2	9.705288887E0	9.751187327E0
6.256814260E-1	9.523434043E-1	-1.124626622E-1	9.667003632E0	9.714451350E0
6.268774160E-1	9.595218897E-1	-1.172483116E-1	9.647860527E0	9.696166365E0
6.280733530E-1	9.667003751E-1	-1.148554832E-1	9.638289452E0	9.687328060E0
6.292692910E-1	9.667003751E-1	-1.148554832E-1	9.635896683E0	9.684947407E0
6.304652280E-1	9.571290612E-1	-1.076770201E-1	9.633503914E0	9.681533352E0
6.316611660E-1	9.427721500E-1	-1.148554832E-1	9.652647018E0	9.699257991E0
6.328571550E-1	9.212366939E-1	-1.244267747E-1	9.683753014E0	9.728269707E0
6.340530930E-1	8.925228715E-1	-1.052841991E-1	9.719645500E0	9.761106007E0
6.352490300E-1	8.566305041E-1	-8.614161611E-2	9.757930756E0	9.795838342E0
6.364449680E-1	8.255237937E-1	-7.896314561E-2	9.808179855E0	9.843176153E0
6.376409050E-1	7.896314859E-1	-6.939185411E-2	9.868000984E0	9.899786691E0
6.388368950E-1	7.657032609E-1	-6.699903309E-2	9.918250084E0	9.947988494E0
6.400328320E-1	8.805587292E-1	-1.316052526E-1	9.865608215E0	9.905701847E0
6.412287700E-1	1.069591761E0	-2.249253243E-1	9.777072906E0	9.837976040E0
6.424247070E-1	1.162911773E0	-2.679961324E-1	9.808179855E0	9.880515057E0
6.436206450E-1	1.172483087E0	-2.656033039E-1	9.872786522E0	9.945711408E0
6.448166340E-1	1.158126116E0	-2.464607358E-1	9.894321442E0	9.964918253E0
6.460125720E-1	1.148554921E0	-2.368894368E-1	9.901499748E0	9.970706709E0
6.472085090E-1	1.134197950E0	-2.273181528E-1	9.927821159E0	9.994984317E0
6.484044470E-1	1.124626637E0	-2.153540403E-1	9.987641335E0	1.005306629E1
6.496003840E-1	1.112662554E0	-1.986042857E-1	1.004267693E1	1.010607844E1
6.507963220E-1	1.117448211E0	-1.914258152E-1	1.006660461E1	1.013024495E1
6.519923110E-1	1.131805062E0	-1.986042857E-1	1.007617569E1	1.014148623E1
6.531882490E-1	1.129412293E0	-2.081755698E-1	1.009292603E1	1.015805419E1
6.543841860E-1	1.093519926E0	-2.057827413E-1	1.010249710E1	1.016359090E1
6.555801240E-1	1.007378340E0	-1.770688742E-1	1.012164021E1	1.017318853E1
6.567760610E-1	8.901300430E-1	-1.220339537E-1	1.015513897E1	1.019480609E1
6.579720510E-1	7.417750359E-1	-5.503492057E-2	1.019820976E1	1.022529909E1
6.591679890E-1	5.958128572E-1	3.110669367E-2	1.026042366E1	1.027775531E1
6.603639260E-1	4.785645306E-1	1.292124242E-1	1.032981491E1	1.034170179E1
6.615598640E-1	3.637090325E-1	2.392822653E-1	1.040159988E1	1.041070701E1
6.627558010E-1	2.344966233E-1	3.421736360E-1	1.047099209E1	1.047920545E1
6.639517910E-1	1.124626622E-1	4.378865361E-1	1.054516983E1	1.055485667E1
6.651477280E-1	1.914258115E-2	5.192425251E-1	1.060259724E1	1.061532135E1
6.663436660E-1	-6.221338734E-2	5.886343718E-1	1.065284634E1	1.066927814E1
6.675396030E-1	-1.196411327E-1	6.532405615E-1	1.071027374E1	1.073084344E1
6.687355410E-1	-1.411765367E-1	6.915257573E-1	1.076052380E1	1.078364554E1
6.699315300E-1	-1.459621787E-1	7.106683254E-1	1.078684425E1	1.081121470E1
6.711274680E-1	-1.148554832E-1	7.082754970E-1	1.079162979E1	1.081545743E1
6.723234050E-1	-4.785645381E-2	6.915257573E-1	1.076770210E1	1.078999104E1
6.735193430E-1	3.349951655E-2	6.675975323E-1	1.071266651E1	1.073350048E1
6.747152800E-1	1.220339537E-1	6.293123364E-1	1.062413216E1	1.064345387E1
6.759112700E-1	2.153540403E-1	5.814558864E-1	1.053559780E1	1.055382818E1
6.771072070E-1	3.230310678E-1	5.383850932E-1	1.044467068E1	1.046352489E1
6.783031450E-1	4.307080805E-1	4.977070987E-1	1.035135078E1	1.037225553E1
6.794990820E-1	5.312066078E-1	4.474578202E-1	1.026999474E1	1.029345379E1
6.806950200E-1	6.269195080E-1	3.924229145E-1	1.018624592E1	1.021306172E1
6.818909570E-1	7.178468108E-1	3.349951804E-1	1.009292603E1	1.012396570E1
6.830869470E-1	8.015955687E-1	2.679961324E-1	9.999606133E0	1.003526284E1
6.842828840E-1	8.757730722E-1	1.986042857E-1	9.901499748E0	9.942138573E0
6.854788220E-1	9.379864931E-1	1.220339537E-1	9.796216011E0	9.841776216E0
6.866747590E-1	9.858429432E-1	4.307080805E-2	9.690931320E0	9.741041590E0
6.878707490E-1	1.019342422E0	-2.871387079E-2	9.609575272E0	9.663530429E0
6.890666860E-1	1.038485050E0	-1.148554832E-1	9.547362328E0	9.604362050E0
6.902626240E-1	1.033699393E0	-2.033899277E-1	9.518648148E0	9.576772131E0
6.914585610E-1	1.019342422E0	-2.679961324E-1	9.528220177E0	9.586337186E0
6.926544990E-1	1.009771109E0	-3.182454109E-1	9.542576790E0	9.601129601E0
6.938504360E-1	9.954141974E-1	-3.613162339E-1	9.559326172E0	9.617802021E0
6.950464260E-1	9.595218897E-1	-3.948157430E-1	9.588040352E0	9.644017810E0
6.962423640E-1	9.164510965E-1	-4.331009090E-1	9.631111145E0	9.684304874E0
6.974383010E-1	8.685946465E-1	-4.689932466E-1	9.695717812E0	9.745837840E0
6.986342390E-1	8.327022791E-1	-4.857429862E-1	9.753145218E0	9.800672476E0
6.998301760E-1	8.111668825E-1	-5.000999570E-1	9.808179855E0	9.854363691E0
7.010261660E-1	7.824530005E-1	-5.240281820E-1	9.879964828E0	9.924743989E0
7.022221030E-1	7.513462901E-1	-5.455635786E-1	9.939785004E0	9.983059991E0
7.034180410E-1	7.393822074E-1	-5.623133183E-1	9.978070259E0	1.002121591E1
7.046139780E-1	7.178468108E-1	-5.862415433E-1	1.000439167E1	1.004723026E1
7.058099160E-1	6.843472719E-1	-6.173482537E-1	1.002831936E1	1.007058286E1
7.070058530E-1	6.628118753E-1	-6.436693072E-1	1.005224800E1	1.009461835E1
7.082018430E-1	6.556333899E-1	-6.652047038E-1	1.009292603E1	1.013604993E1
7.093977800E-1	6.628118753E-1	-6.891329288E-1	1.012642574E1	1.017146607E1
7.105937180E-1	6.819544435E-1	-7.010970116E-1	1.015274620E1	1.019974776E1
7.117896550E-1	6.939185858E-1	-6.963114142E-1	1.018624592E1	1.023357115E1
7.129855930E-1	6.867401004E-1	-6.843472719E-1	1.021735287E1	1.026324718E1
7.141815820E-1	6.867401004E-1	-6.795616150E-1	1.024845982E1	1.029389841E1
7.153775200E-1	7.058826685E-1	-6.723831892E-1	1.027717304E1	1.032330641E1
7.165734570E-1	7.178468108E-1	-6.652047038E-1	1.028913784E1	1.033557733E1
7.177693950E-1	7.369893789E-1	-6.556333899E-1	1.030110168E1	1.034822228E1
7.189653320E-1	7.633104324E-1	-6.412764788E-1	1.032263660E1	1.037066559E1
7.201613220E-1	7.872386575E-1	-6.245267391E-1	1.033460140E1	1.038334072E1
7.213572590E-1	8.039883971E-1	-6.149554253E-1	1.033220863E1	1.038167148E1
7.225531970E-1	8.231309652E-1	-6.221339107E-1	1.032502937E1	1.037645540E1
7.237491340E-1	8.542376757E-1	-6.269195080E-1	1.031545830E1	1.036973625E1
7.249450720E-1	8.805587292E-1	-6.245267391E-1	1.029631615E1	1.035275536E1
7.261410610E-1	9.020941257E-1	-6.197410822E-1	1.028674412E1	1.034480340E1
7.273369990E-1	9.236295223E-1	-6.077769399E-1	1.028913784E1	1.034837387E1
7.285329360E-1	9.379864931E-1	-5.862415433E-1	1.029153061E1	1.035080191E1
7.297288740E-1	9.547362328E-1	-5.599204898E-1	1.030110168E1	1.036039228E1
7.309248110E-1	9.714859724E-1	-5.192425251E-1	1.030827999E1	1.036696842E1
7.321207490E-1	9.786644578E-1	-4.785645306E-1	1.024606609E1	1.030381864E1
7.333167390E-1	9.810572863E-1	-4.331009090E-1	1.020299530E1	1.025919894E1
7.345126760E-1	9.858429432E-1	-3.780659735E-1	1.024606609E1	1.030032478E1
7.357086140E-1	1.000199914E0	-3.158525825E-1	1.025085258E1	1.030437487E1
7.369045510E-1	1.021735311E0	-2.560320199E-1	1.024845982E1	1.030244748E1
7.381004890E-1	1.045663476E0	-2.009970993E-1	1.026042366E1	1.031552740E1
7.392964780E-1	1.062413216E0	-1.459621787E-1	1.025324535E1	1.030917393E1
7.404924160E-1	1.076770186E0	-1.028913707E-1	1.025563812E1	1.031252316E1
7.416883530E-1	1.110269666E0	-6.699903309E-2	1.023888779E1	1.029912670E1
7.428842910E-1	1.143769264E0	-4.546362907E-2	1.021017456E1	1.027413936E1
7.440802280E-1	1.158126116E0	-3.828516230E-2	1.021496010E1	1.028047332E1
7.452762180E-1	1.162911773E0	-3.110669367E-2	1.023888779E1	1.030476368E1
7.464721550E-1	1.165304661E0	-1.196411345E-2	1.026042366E1	1.032639200E1
7.476680930E-1	1.167697430E0	4.785645287E-3	1.026760197E1	1.033378877E1
7.488640300E-1	1.158126116E0	1.435693540E-2	1.026760197E1	1.033272047E1
7.500599680E-1	1.122233868E0	2.392822690E-2	1.026520920E1	1.032639827E1
7.512559570E-1	1.086341500E0	3.589234129E-2	1.024606609E1	1.030355747E1
7.524518950E-1	1.052842021E0	4.307080805E-2	1.021256733E1	1.026678445E1
7.536478320E-1	1.014556766E0	4.307080805E-2	1.018385315E1	1.023435613E1
7.548437700E-1	9.882357717E-1	2.392822690E-2	1.014317513E1	1.019123075E1
7.560397070E-1	9.523434043E-1	1.435693540E-2	1.004985523E1	1.009488753E1
7.572356970E-1	9.164510965E-1	2.392822644E-3	9.994820595E0	1.003674883E1
7.584316340E-1	8.949156404E-1	-9.571290575E-3	1.003310490E1	1.007294195E1
7.596275720E-1	8.781659007E-1	-4.785645287E-3	1.008574772E1	1.012390761E1
7.608235090E-1	8.638089895E-1	0.000000000E0	1.013599682E1	1.017273795E1
7.620194470E-1	8.494520187E-1	1.914258115E-2	1.018624592E1	1.022162125E1
7.632153840E-1	8.303094506E-1	7.178468257E-2	1.022453117E1	1.025844065E1
7.644113740E-1	7.920243144E-1	1.746760458E-1	1.028674412E1	1.031866846E1
7.656073110E-1	6.556333899E-1	4.642075896E-1	1.054038334E1	1.057095193E1
7.668032490E-1	4.163511395E-1	9.116654396E-1	1.095912743E1	1.100486057E1
7.679991860E-1	2.009970993E-1	1.222732425E0	1.127258778E1	1.134048983E1
7.691951240E-1	7.417750359E-2	1.320838094E0	1.136112213E1	1.143788493E1
7.703911140E-1	-4.785645287E-3	1.261017561E0	1.128933716E1	1.135954760E1
7.715870510E-1	-5.982056633E-2	1.110269666E0	1.113380337E1	1.118918472E1
7.727829890E-1	-9.810572863E-2	8.997012973E-1	1.093041420E1	1.096781846E1
7.739789260E-1	-1.196411327E-1	6.460621357E-1	1.071506023E1	1.073518636E1
7.751748640E-1	-1.387837082E-1	3.924229145E-1	1.050688457E1	1.051512625E1
7.763708530E-1	-1.555334777E-1	1.794617027E-1	1.031785107E1	1.032058369E1
7.775667910E-1	-1.555334777E-1	1.196411345E-2	1.014556789E1	1.014676706E1
7.787627280E-1	-1.411765367E-1	-1.124626622E-1	9.982855797E0	9.984487394E0
7.799586660E-1	-1.244267747E-1	-2.081755698E-1	9.832108498E0	9.835099217E0
7.811546030E-1	-9.810572863E-2	-2.679961324E-1	9.674181938E0	9.678390508E0
7.823505930E-1	-5.982056633E-2	-2.799602449E-1	9.518648148E0	9.522952210E0
7.835465300E-1	-1.914258115E-2	-2.536391914E-1	9.372686386E0	9.376137231E0
7.847424680E-1	3.349951655E-2	-2.081755698E-1	9.217152596E0	9.219564049E0
7.859384050E-1	1.028913707E-1	-1.579262912E-1	9.059226990E0	9.061187615E0
7.871343430E-1	1.818545163E-1	-1.196411327E-1	8.918049812E0	8.920706111E0
7.883302800E-1	2.871387303E-1	-9.332008660E-2	8.805587769E0	8.810762353E0
7.895262700E-1	3.996013701E-1	-6.460621208E-2	8.721838951E0	8.731227285E0
7.907222070E-1	4.953143001E-1	-5.024927482E-2	8.645268440E0	8.659591656E0
7.919181450E-1	5.838487148E-1	-6.460621208E-2	8.599804878E0	8.619843225E0
7.931140820E-1	6.723831892E-1	-9.571290761E-2	8.575876236E0	8.602727087E0
7.943100200E-1	7.585247755E-1	-1.387837082E-1	8.573483467E0	8.608091514E0
7.955060090E-1	8.518448472E-1	-1.866401732E-1	8.611768723E0	8.655809305E0
7.967019470E-1	9.236295223E-1	-2.368894368E-1	8.671588898E0	8.723855920E0
7.978978840E-1	9.858429432E-1	-2.871387303E-1	8.738588333E0	8.798707917E0
7.990938220E-1	1.043270707E0	-3.254238665E-1	8.819944382E0	8.887391820E0
8.002897590E-1	1.076770186E0	-3.613162339E-1	8.901300430E0	8.973468271E0
8.014857490E-1	1.110269666E0	-3.828516304E-1	8.985049248E0	9.061478030E0
8.026816860E-1	1.134197950E0	-3.732803464E-1	9.066405296E0	9.144695085E0
8.038776240E-1	1.146162033E0	-3.756731451E-1	9.133403778E0	9.212702225E0
8.050735610E-1	1.153340459E0	-3.756731451E-1	9.188439369E0	9.268157453E0
8.062694990E-1	1.162911773E0	-3.493520916E-1	9.233902931E0	9.313397555E0
8.074654890E-1	1.170090318E0	-3.110669553E-1	9.274580956E0	9.353273539E0
8.086614260E-1	1.170090318E0	-2.751746178E-1	9.298508644E0	9.375878382E0
8.098573640E-1	1.162911773E0	-2.464607358E-1	9.317651749E0	9.393175224E0
8.110533010E-1	1.155733347E0	-2.129612118E-1	9.341579437E0	9.415209951E0
8.122492390E-1	1.138983607E0	-1.698904037E-1	9.367900848E0	9.438416854E0
8.134452280E-1	1.115055323E0	-1.292124242E-1	9.384650230E0	9.451545068E0
8.146411660E-1	1.086341500E0	-8.853443712E-2	9.387042999E0	9.450108596E0
8.158371030E-1	1.045663476E0	-4.546362907E-2	9.396614075E0	9.454725544E0
8.170330410E-1	1.007378340E0	9.571290575E-3	9.418149948E0	9.471876856E0
8.182289780E-1	9.762716293E-1	6.221338734E-2	9.439684868E0	9.490238522E0
8.194249160E-1	9.379864931E-1	9.810572863E-2	9.475577354E0	9.522395161E0
8.206209050E-1	9.020941257E-1	1.148554832E-1	9.530612946E0	9.573899347E0
8.218168430E-1	8.709874153E-1	1.244267747E-1	9.588040352E0	9.628323784E0
8.230127800E-1	8.327022791E-1	1.339980662E-1	9.643074989E0	9.679888626E0
8.242087180E-1	7.968099117E-1	1.531406492E-1	9.693324089E0	9.727224167E0
8.254046550E-1	7.609176040E-1	1.818545163E-1	9.736394882E0	9.767776204E0
8.266006450E-1	7.369893789E-1	2.033899277E-1	9.767501831E0	9.797377855E0
8.277965820E-1	7.178468108E-1	2.177468538E-1	9.796216011E0	9.824895209E0
8.289925200E-1	6.963114142E-1	2.321037948E-1	9.815358162E0	9.842762702E0
8.301884570E-1	6.891329288E-1	2.512463629E-1	9.824930191E0	9.852272945E0
8.313843950E-1	6.819544435E-1	2.608176768E-1	9.822537422E0	9.849635990E0
8.325803840E-1	6.699903607E-1	2.656033039E-1	9.808179855E0	9.834623748E0
8.337763220E-1	6.771687865E-1	2.799602449E-1	9.786644936E0	9.814038639E0
8.349722590E-1	6.747759581E-1	2.871387303E-1	9.753145218E0	9.780675482E0
8.361681970E-1	6.675975323E-1	2.919243574E-1	9.705288887E0	9.732601845E0
8.373641340E-1	6.723831892E-1	2.943171859E-1	9.652647018E0	9.680512188E0
8.385601240E-1	6.891329288E-1	2.895315289E-1	9.604789734E0	9.633831975E0
8.397560610E-1	7.082754970E-1	2.656033039E-1	9.556933403E0	9.586823007E0
8.409519990E-1	7.322037220E-1	2.488535494E-1	9.509077072E0	9.540471537E0
8.421479360E-1	7.609176040E-1	2.368894368E-1	9.458827972E0	9.492341061E0
8.433438740E-1	7.728816867E-1	2.153540403E-1	9.413364410E0	9.447494535E0
8.445398110E-1	7.896314859E-1	1.914258152E-1	9.382257462E0	9.417373137E0
8.457358010E-1	8.183453679E-1	1.722832322E-1	9.358329773E0	9.395621682E0
8.469317390E-1	8.494520187E-1	1.531406492E-1	9.336793900E0	9.376606055E0
8.481276760E-1	8.685946465E-1	1.268195957E-1	9.324830055E0	9.366055489E0
8.493236140E-1	8.781659007E-1	1.100698411E-1	9.324830055E0	9.366736159E0
8.505195510E-1	8.829515576E-1	9.810572863E-2	9.329615593E0	9.371817076E0
8.517155410E-1	8.853443861E-1	9.092725813E-2	9.348757744E0	9.391026238E0
8.529114780E-1	8.805587292E-1	9.332008660E-2	9.367900848E0	9.409657731E0
8.541074160E-1	8.733802438E-1	1.124626622E-1	9.384650230E0	9.425874010E0
8.553033530E-1	8.829515576E-1	1.244267747E-1	9.406186104E0	9.448355544E0
8.564992910E-1	8.949156404E-1	1.411765367E-1	9.437292099E0	9.480679669E0
8.576952280E-1	8.901300430E-1	1.651047617E-1	9.466006279E0	9.509199017E0
8.588912180E-1	8.733802438E-1	1.842473447E-1	9.497113228E0	9.538967439E0
8.600871550E-1	8.566305041E-1	2.057827413E-1	9.521040916E0	9.561714412E0
8.612830930E-1	8.590233326E-1	2.129612118E-1	9.544969559E0	9.585912447E0
8.624790300E-1	8.590233326E-1	2.153540403E-1	9.568898201E0	9.609792465E0
8.636750200E-1	8.494520187E-1	2.249253243E-1	9.585647583E0	9.625840208E0
8.648709570E-1	8.494520187E-1	2.368894368E-1	9.600004196E0	9.640423533E0
8.660668950E-1	8.422735929E-1	2.464607358E-1	9.609575272E0	9.649564995E0
8.672628320E-1	8.111668825E-1	2.416750938E-1	9.611968994E0	9.649162995E0
8.684587700E-1	7.824530005E-1	2.321037948E-1	9.609575272E0	9.644171388E0
8.696547070E-1	7.585247755E-1	2.153540403E-1	9.607182503E0	9.639486129E0
8.708506970E-1	7.250252366E-1	1.866401732E-1	9.590433121E0	9.619610366E0
8.720466340E-1	6.987041831E-1	1.459621787E-1	9.518648148E0	9.545373489E0
8.732425720E-1	6.867401004E-1	1.148554832E-1	9.394221306E0	9.419989262E0
8.744385090E-1	6.604190469E-1	8.135596663E-2	9.324830055E0	9.348541473E0
8.756344470E-1	6.364908218E-1	4.067798331E-2	9.317651749E0	9.339454447E0
8.768304360E-1	6.317051649E-1	9.571290575E-3	9.315258980E0	9.336658550E0
8.780263740E-1	6.101697683E-1	-2.392822690E-2	9.355937004E0	9.375843265E0
8.792223110E-1	5.838487148E-1	-4.785645381E-2	9.403793335E0	9.422022004E0
8.804182490E-1	5.790630579E-1	-6.221338734E-2	9.396614075E0	9.414645007E0
8.816141860E-1	5.814558864E-1	-7.896314561E-2	9.353543282E0	9.371931394E0
8.828101760E-1	5.599204898E-1	-1.028913707E-1	9.336793900E0	9.354133734E0
8.840061140E-1	5.192425251E-1	-1.196411327E-1	9.351150513E0	9.366319593E0
8.852020510E-1	4.761717021E-1	-8.853443712E-2	9.365508080E0	9.378023215E0
8.863979890E-1	4.354937077E-1	-5.503492057E-2	9.375079155E0	9.385349902E0
8.875939260E-1	3.948157430E-1	-4.307080805E-2	9.382257462E0	9.390659702E0
8.887899160E-1	3.613162339E-1	-2.871387079E-2	9.360722542E0	9.367737209E0
8.899858530E-1	3.349951804E-1	-1.674975827E-2	9.341579437E0	9.347599088E0
8.911817910E-1	3.230310678E-1	-9.571290575E-3	9.336793900E0	9.342385188E0
8.923777280E-1	3.110669553E-1	-1.196411345E-2	9.315258980E0	9.320458983E0
8.935736660E-1	3.014956415E-1	-1.435693540E-2	9.288937569E0	9.293840266E0
8.947696030E-1	2.895315289E-1	-1.196411345E-2	9.260223389E0	9.264756276E0
8.959655930E-1	2.727817893E-1	-1.435693540E-2	9.255437851E0	9.259467903E0
8.971615300E-1	2.536391914E-1	-3.828516230E-2	9.298508644E0	9.302046097E0
8.983574680E-1	2.297109663E-1	-6.221338734E-2	9.355937004E0	9.358963343E0
8.995534050E-1	1.986042857E-1	-7.896314561E-2	9.399007797E0	9.401437465E0
9.007493950E-1	1.674975902E-1	-8.374879509E-2	9.367900848E0	9.369772442E0
9.019453320E-1	1.435693651E-1	-6.939185411E-2	9.293723106E0	9.295090993E0
9.031412700E-1	1.244267747E-1	-5.742774159E-2	9.236295700E0	9.237312284E0
9.043372070E-1	1.148554832E-1	-5.503492057E-2	9.166903496E0	9.167788192E0
9.055331450E-1	1.028913707E-1	-5.503492057E-2	9.056833267E0	9.057584905E0
9.067290820E-1	7.657032460E-2	-5.264209956E-2	8.927620888E0	8.928104442E0
9.079250720E-1	5.503492057E-2	-6.939185411E-2	8.867800713E0	8.868242980E0
9.091210090E-1	4.785645381E-2	-8.374879509E-2	8.863015175E0	8.863540043E0
9.103169470E-1	3.828516230E-2	-5.982056633E-2	8.829515457E0	8.829801100E0
9.115128840E-1	2.871387079E-2	-2.153540403E-2	8.824729919E0	8.824802911E0
9.127088220E-1	2.632104978E-2	1.914258115E-2	8.860622406E0	8.860682178E0
9.139048110E-1	2.153540403E-2	6.939185411E-2	8.894122124E0	8.894418888E0
9.151007490E-1	7.178467698E-3	1.100698411E-1	8.937192917E0	8.937873580E0
9.162966860E-1	2.392822644E-3	1.387837082E-1	8.994620323E0	8.995691269E0
9.174926240E-1	1.435693540E-2	1.722832322E-1	9.083154678E0	9.084799753E0
9.186885610E-1	3.589234129E-2	2.105683982E-1	9.190832138E0	9.193314022E0
9.198845510E-1	7.417750359E-2	2.321037948E-1	9.298508644E0	9.301700784E0
9.210804890E-1	1.268195957E-1	2.488535494E-1	9.406186104E0	9.410331998E0
9.222764260E-1	1.651047617E-1	2.775674164E-1	9.487542152E0	9.493037414E0
9.234723640E-1	1.866401732E-1	3.038884699E-1	9.556933403E0	9.563585040E0
9.246683010E-1	2.081755698E-1	3.038884699E-1	9.626325607E0	9.633370644E0
9.258642910E-1	2.321037948E-1	2.919243574E-1	9.678967476E0	9.686150082E0
9.270602280E-1	2.727817893E-1	2.847459018E-1	9.714859962E0	9.722859365E0
9.282561660E-1	3.373879790E-1	2.560320199E-1	9.726823807E0	9.736040489E0
9.294521030E-1	4.091726840E-1	2.057827413E-1	9.707681656E0	9.718479920E0
9.306480410E-1	4.761717021E-1	1.579262912E-1	9.645467758E0	9.658505499E0
9.318439780E-1	5.623133183E-1	9.810572863E-2	9.583254814E0	9.600239259E0
9.330399680E-1	6.723831892E-1	3.589234129E-2	9.528220177E0	9.551982367E0
9.342359050E-1	7.824530005E-1	-2.632104978E-2	9.458827972E0	9.491172325E0
9.354318430E-1	8.997012973E-1	-9.571290761E-2	9.399007797E0	9.442455769E0
9.366277800E-1	1.012163997E0	-1.603191197E-1	9.341579437E0	9.397621218E0
9.378237180E-1	1.117448211E0	-2.033899277E-1	9.298508644E0	9.367620881E0
9.390197070E-1	1.210768223E0	-2.344966233E-1	9.286544800E0	9.368076786E0
9.402156450E-1	1.284945726E0	-2.656033039E-1	9.298508644E0	9.390627968E0
9.414115820E-1	1.342373490E0	-2.847459018E-1	9.329615593E0	9.429993315E0
9.426075200E-1	1.392622828E0	-2.895315289E-1	9.367900848E0	9.475272722E0
9.438034570E-1	1.442872047E0	-2.967100143E-1	9.415757179E0	9.530288549E0
9.449994470E-1	1.495514154E0	-2.919243574E-1	9.480362892E0	9.602034315E0
9.461953840E-1	1.543370605E0	-2.679961324E-1	9.556933403E0	9.684461308E0
9.473913220E-1	1.574477315E0	-2.512463629E-1	9.626325607E0	9.757471406E0
9.485872590E-1	1.600798368E0	-2.392822653E-1	9.702896118E0	9.836971307E0
9.497831970E-1	1.615155339E0	-2.153540403E-1	9.791430473E0	9.926087590E0
9.509791340E-1	1.636690736E0	-1.914258152E-1	9.879964828E0	1.001644175E1
9.521751240E-1	1.653440475E0	-1.794617027E-1	9.949356079E0	1.008740593E1
9.533710610E-1	1.653440475E0	-1.651047617E-1	1.000678444E1	1.014380894E1
9.545669990E-1	1.653440475E0	-1.507478207E-1	1.007139015E1	1.020732531E1
9.557629360E-1	1.663011789E0	-1.363908947E-1	1.012881851E1	1.026533853E1
9.569588740E-1	1.670190215E0	-1.244267747E-1	1.017906761E1	1.031593112E1
9.581548640E-1	1.660618901E0	-1.100698411E-1	1.022692394E1	1.036145472E1
9.593508010E-1	1.646261930E0	-9.571290761E-2	1.025563812E1	1.038736986E1
9.605467390E-1	1.641476393E0	-8.374879509E-2	1.026999474E1	1.040068510E1
9.617426760E-1	1.629512191E0	-7.657032460E-2	1.027478027E1	1.040347455E1
9.629386140E-1	1.612762451E0	-7.657032460E-2	1.027478027E1	1.040086417E1
9.641346030E-1	1.605584025E0	-7.657032460E-2	1.027956581E1	1.040448155E1
9.653305410E-1	1.588834286E0	-6.221338734E-2	1.029631615E1	1.041836797E1
9.665264780E-1	1.548156261E0	-4.785645381E-2	1.029870892E1	1.041453232E1
9.677224160E-1	1.507478237E0	-4.307080805E-2	1.028913784E1	1.039907223E1
9.689183530E-1	1.464407444E0	-4.067798331E-2	1.028674412E1	1.039053648E1
9.701143430E-1	1.421336651E0	-2.392822690E-2	1.027238750E1	1.037028040E1
9.713102800E-1	1.375872970E0	-2.392822644E-3	1.026999474E1	1.036174812E1
9.725062180E-1	1.332802176E0	7.178467698E-3	1.027478027E1	1.036086497E1
9.737021550E-1	1.304088354E0	2.392822690E-2	1.026281643E1	1.034536708E1
9.748980930E-1	1.272981644E0	3.349951655E-2	1.024845982E1	1.032727133E1
9.760940300E-1	1.246660590E0	2.871387079E-2	1.023649502E1	1.031216841E1
9.772900200E-1	1.227517962E0	1.914258115E-2	1.021735287E1	1.029084381E1
9.784859570E-1	1.217946768E0	4.785645287E-3	1.018624592E1	1.025880223E1
9.796818950E-1	1.215553880E0	-1.196411345E-2	1.014796066E1	1.022050977E1
9.808778320E-1	1.225125194E0	-2.632104978E-2	1.010488987E1	1.017892056E1
9.820737700E-1	1.244267821E0	-4.307080805E-2	1.006181908E1	1.013855318E1
9.832697590E-1	1.268195987E0	-6.460621208E-2	1.001156998E1	1.009178024E1
9.844656970E-1	1.292124271E0	-9.092725813E-2	9.954142570E0	1.003806790E1
9.856616340E-1	1.304088354E0	-1.076770201E-1	9.903892517E0	9.989961350E0
9.868575720E-1	1.325623751E0	-1.148554832E-1	9.851250648E0	9.940704676E0
9.880535090E-1	1.354337573E0	-1.196411327E-1	9.805787086E0	9.899596186E0
9.892494990E-1	1.371087432E0	-1.316052526E-1	9.767501831E0	9.864141762E0
9.904454360E-1	1.371087432E0	-1.483550072E-1	9.736394882E0	9.833578965E0
9.916413740E-1	1.373480201E0	-1.627119333E-1	9.707681656E0	9.805712935E0
9.928373110E-1	1.373480201E0	-1.890329868E-1	9.688538551E0	9.787234573E0
9.940332490E-1	1.368694544E0	-2.201396823E-1	9.676574707E0	9.775371312E0
9.952292390E-1	1.361516118E0	-2.392822653E-1	9.667003632E0	9.765343893E0
9.964251760E-1	1.351944804E0	-2.608176768E-1	9.667003632E0	9.764565522E0
9.976211140E-1	1.337587833E0	-2.847459018E-1	9.676574707E0	9.772733471E0
9.988170510E-1	1.323230863E0	-3.086741269E-1	9.688538551E0	9.783353152E0
1.000012989E0	1.304088354E0	-3.158525825E-1	9.698110580E0	9.790493252E0
1.001208978E0	1.284945726E0	-3.134597540E-1	9.717252731E0	9.806851849E0
1.002404916E0	1.270588875E0	-3.302095234E-1	9.743574142E0	9.831615914E0
1.003600853E0	1.244267821E0	-3.469592929E-1	9.772287369E0	9.857290884E0
1.004796791E0	1.213161111E0	-3.373879790E-1	9.796216011E0	9.876813184E0
1.005992728E0	1.182054400E0	-3.302095234E-1	9.822537422E0	9.898915716E0
1.007188666E0	1.146162033E0	-3.206382394E-1	9.853643417E0	9.925259940E0
1.008384655E0	1.105484009E0	-3.038884699E-1	9.877572060E0	9.943886207E0
1.009580593E0	1.067198873E0	-2.943171859E-1	9.899106979E0	9.960815982E0
1.010776530E0	1.026520967E0	-2.751746178E-1	9.923035622E0	9.979784683E0
1.011972468E0	9.930213690E-1	-2.440679073E-1	9.954142570E0	1.000652861E1
1.013168457E0	9.738788009E-1	-2.249253243E-1	9.966106415E0	1.001610246E1
1.014364395E0	9.619147182E-1	-2.201396823E-1	9.958928108E0	1.000769656E1
1.015560332E0	9.571290612E-1	-2.321037948E-1	9.954142570E0	1.000274575E1
1.016756270E0	9.595218897E-1	-2.464607358E-1	9.939785004E0	9.989031538E0
1.017952207E0	9.762716293E-1	-2.560320199E-1	9.906285286E0	9.957567316E0
1.019148145E0	9.882357717E-1	-2.799602449E-1	9.858428955E0	9.911791419E0
1.020344134E0	9.882357717E-1	-2.967100143E-1	9.798608780E0	9.852785433E0
1.021540072E0	9.930213690E-1	-3.014956415E-1	9.741181374E0	9.796305713E0
1.022736009E0	9.930213690E-1	-3.206382394E-1	9.695717812E0	9.751709809E0
1.023931947E0	9.954141974E-1	-3.445664644E-1	9.652647018E0	9.709952108E0
1.025127884E0	9.978070259E-1	-3.637090325E-1	9.602396965E0	9.660948742E0
1.026323874E0	9.954141974E-1	-3.756731451E-1	9.559326172E0	9.618352073E0
1.027519811E0	9.858429432E-1	-3.756731451E-1	9.518648148E0	9.576934749E0
1.028715749E0	9.714859724E-1	-3.780659735E-1	9.487542152E0	9.544641165E0
1.029911686E0	9.571290612E-1	-3.732803464E-1	9.461220741E0	9.516834146E0
1.031107624E0	9.427721500E-1	-3.565305769E-1	9.437292099E0	9.490964943E0
1.032303614E0	9.355936646E-1	-3.469592929E-1	9.415757179E0	9.468484542E0
1.033499551E0	9.308080077E-1	-3.254238665E-1	9.387042999E0	9.438690614E0
1.034695489E0	9.284151793E-1	-2.967100143E-1	9.353543282E0	9.404188615E0
1.035891426E0	9.236295223E-1	-2.727817893E-1	9.322437286E0	9.372050915E0
1.037087364E0	9.188438654E-1	-2.632105052E-1	9.286544800E0	9.335602184E0
1.038283301E0	9.236295223E-1	-2.488535494E-1	9.253045082E0	9.302357920E0
1.039479291E0	9.355936646E-1	-2.201396823E-1	9.238688469E0	9.288550027E0
1.040675228E0	9.571290612E-1	-1.914258152E-1	9.226723671E0	9.278209395E0
1.041871166E0	9.810572863E-1	-1.603191197E-1	9.205188751E0	9.258708094E0
1.043067103E0	9.882357717E-1	-1.339980662E-1	9.186046600E0	9.240022596E0
1.044263041E0	9.930213690E-1	-1.004985496E-1	9.176474571E0	9.230594615E0
1.045459030E0	1.016949654E0	-7.896314561E-2	9.169296265E0	9.225855828E0
1.046654968E0	1.055234790E0	-6.939185411E-2	9.145368576E0	9.206307733E0
1.047850905E0	1.076770186E0	-5.503492057E-2	9.123832703E0	9.187316587E0
1.049046843E0	1.081555843E0	-3.828516230E-2	9.114261627E0	9.178289264E0
1.050242780E0	1.083948612E0	-2.153540403E-2	9.111868858E0	9.176140935E0
1.051438770E0	1.100698471E0	-2.392822644E-3	9.126225471E0	9.192362820E0
1.052634707E0	1.124626637E0	1.196411345E-2	9.162117958E0	9.230890189E0
1.053830645E0	1.143769264E0	2.632104978E-2	9.221938133E0	9.292633849E0
1.055026582E0	1.170090318E0	3.828516230E-2	9.296115875E0	9.369543611E0
1.056222520E0	1.196411371E0	5.024927482E-2	9.379864693E0	9.455992111E0
1.057418509E0	1.210768223E0	7.178468257E-2	9.480362892E0	9.557635340E0
1.058614447E0	1.217946768E0	1.124626622E-1	9.564111710E0	9.642005755E0
1.059810384E0	1.220339537E0	1.986042857E-1	9.621540070E0	9.700654904E0
1.061006322E0	1.205982566E0	3.613162339E-1	9.645467758E0	9.727280794E0
1.062202259E0	1.127019525E0	8.709874153E-1	9.418149948E0	9.525247531E0
1.063398197E0	1.014556766E0	1.531406522E0	9.080761909E0	9.264705512E0
1.064594186E0	9.714859724E-1	1.859223247E0	9.037691116E0	9.277950032E0
1.065790124E0	9.954141974E-1	1.875972986E0	9.286544800E0	9.526281456E0
1.066986061E0	1.069591761E0	1.708475351E0	9.657432556E0	9.865541959E0
1.068181999E0	1.196411371E0	1.440479279E0	1.001635551E1	1.018988511E1
1.069377936E0	1.356730461E0	1.115055323E0	1.030110168E1	1.044972544E1
1.070573926E0	1.536192179E0	7.680960894E-1	1.046142101E1	1.060147101E1
1.071769864E0	1.696511269E0	4.307080805E-1	1.049970531E1	1.064459824E1
1.072965801E0	1.825723648E0	1.627119333E-1	1.046859932E1	1.062785556E1
1.074161739E0	1.883151412E0	-4.785645287E-3	1.014556789E1	1.031885798E1
1.075357676E0	1.919043779E0	-1.555334777E-1	1.016710377E1	1.034779777E1
1.076553666E0	1.950150490E0	-3.469592929E-1	1.050449181E1	1.068961252E1
1.077749603E0	1.952543259E0	-5.838487148E-1	1.058584690E1	1.078023465E1
1.078945541E0	1.933400750E0	-8.087740541E-1	1.068873882E1	1.089225833E1
1.080141478E0	1.887937069E0	-9.451649189E-1	1.077727318E1	1.098213368E1
1.081337416E0	1.840080619E0	-1.012163997E0	1.087298584E1	1.107394210E1
1.082533405E0	1.789831281E0	-1.024128079E0	1.095912743E1	1.115144871E1
1.083729343E0	1.730010748E0	-9.714859724E-1	1.102851963E1	1.120557751E1
1.084925280E0	1.660618901E0	-8.901300430E-1	1.105244732E1	1.121189450E1
1.086121218E0	1.596012712E0	-7.896314859E-1	1.101177025E1	1.115481324E1
1.087317155E0	1.550549030E0	-6.652047038E-1	1.091844940E1	1.104804222E1
1.088513145E0	1.509871125E0	-5.479564071E-1	1.080359459E1	1.092234513E1
1.089709082E0	1.462014675E0	-4.498506486E-1	1.068156052E1	1.079053231E1
1.090905020E0	1.428515077E0	-3.517449200E-1	1.056670475E1	1.066862827E1
1.092100957E0	1.411765337E0	-2.632105052E-1	1.046381378E1	1.056190134E1
1.093296895E0	1.395015597E0	-1.842473447E-1	1.036570740E1	1.046077939E1
1.094492832E0	1.387837172E0	-1.220339537E-1	1.027717304E1	1.037117496E1
1.095688822E0	1.385444283E0	-9.092725813E-2	1.020060253E1	1.029465957E1
1.096884759E0	1.371087432E0	-8.135596663E-2	1.013360405E1	1.022626181E1
1.098080697E0	1.356730461E0	-8.853443712E-2	1.007139015E1	1.016274842E1
1.099276634E0	1.359123230E0	-9.810572863E-2	1.001396275E1	1.010625007E1
1.100472572E0	1.361516118E0	-1.148554832E-1	9.966106415E0	1.005933373E1
1.101668561E0	1.354337573E0	-1.555334777E-1	9.903892517E0	9.997275024E0
1.102864499E0	1.330409408E0	-1.962114573E-1	9.836894035E0	9.928392236E0
1.104060436E0	1.304088354E0	-2.368894368E-1	9.772287369E0	9.861762695E0
1.105256374E0	1.280160069E0	-2.656033039E-1	9.712467194E0	9.800070097E0
1.106452311E0	1.251446247E0	-2.895315289E-1	9.659825325E0	9.744853592E0
1.107648249E0	1.237089276E0	-3.134597540E-1	9.623932838E0	9.708178520E0
1.108844239E0	1.208375454E0	-3.230310678E-1	9.607182503E0	9.688264858E0
1.110040176E0	1.167697430E0	-3.326023519E-1	9.595218658E0	9.671730079E0
1.111236114E0	1.143769264E0	-3.397808075E-1	9.595218658E0	9.669119930E0
1.112432051E0	1.122233868E0	-3.445664644E-1	9.609575272E0	9.681016052E0
1.113628041E0	1.086341500E0	-3.397808075E-1	9.621540070E0	9.688633658E0
1.114823978E0	1.043270707E0	-3.326023519E-1	9.626325607E0	9.688404553E0
1.116019916E0	1.014556766E0	-3.469592929E-1	9.631111145E0	9.690614432E0
1.117215853E0	9.858429432E-1	-3.637090325E-1	9.640682220E0	9.697779346E0
1.118411791E0	9.571290612E-1	-3.804588020E-1	9.643074989E0	9.697924530E0
1.119607728E0	9.260223508E-1	-3.948157430E-1	9.638289452E0	9.690718261E0
1.120803718E0	9.140582681E-1	-4.187439680E-1	9.633503914E0	9.685827104E0
1.121999655E0	9.092726111E-1	-4.474578202E-1	9.616754532E0	9.670003253E0
1.123195593E0	8.973084688E-1	-4.737788737E-1	9.595218658E0	9.648722714E0
1.124391530E0	9.044869542E-1	-5.000999570E-1	9.571290970E0	9.626931362E0
1.125587468E0	9.044869542E-1	-5.312066078E-1	9.537791252E0	9.595297759E0
1.126783457E0	8.901300430E-1	-5.503492355E-1	9.518648148E0	9.576005343E0
1.127979395E0	8.901300430E-1	-5.575276613E-1	9.516255379E0	9.574042251E0
1.129175332E0	8.925228715E-1	-5.718846321E-1	9.525827408E0	9.584625027E0
1.130371270E0	8.877372146E-1	-5.862415433E-1	9.559326172E0	9.618340469E0
1.131567207E0	8.829515576E-1	-5.862415433E-1	9.607182503E0	9.665466271E0
1.132763197E0	8.685946465E-1	-5.670989752E-1	9.664610863E0	9.720121452E0
1.133959134E0	8.470591903E-1	-5.527420044E-1	9.734002113E0	9.786410483E0
1.135155072E0	8.350951076E-1	-5.479564071E-1	9.803394318E0	9.854145331E0
1.136351009E0	8.207381964E-1	-5.312066078E-1	9.872786522E0	9.921073800E0
1.137546947E0	7.896314859E-1	-5.024927258E-1	9.944570541E0	9.988518412E0
1.138742884E0	7.513462901E-1	-4.666004181E-1	1.001156998E1	1.005056071E1
1.139938874E0	7.106683254E-1	-4.211367965E-1	1.006181908E1	1.009567278E1
1.141134811E0	6.604190469E-1	-3.708875179E-1	1.010249710E1	1.013085182E1
1.142330749E0	6.245267391E-1	-3.182454109E-1	1.013360405E1	1.015781693E1
1.143526686E0	5.958128572E-1	-2.632105052E-1	1.015035343E1	1.017123137E1
1.144722624E0	5.670989752E-1	-2.177468538E-1	1.015753174E1	1.017568012E1
1.145918614E0	5.527420044E-1	-1.770688742E-1	1.015513897E1	1.017171198E1
1.147114551E0	5.479564071E-1	-1.435693651E-1	1.015035343E1	1.016614692E1
1.148310489E0	5.479564071E-1	-1.052841991E-1	1.014317513E1	1.015851085E1
1.149506426E0	5.575276613E-1	-7.178468257E-2	1.013360405E1	1.014918328E1
1.150702364E0	5.742774606E-1	-3.828516230E-2	1.012403297E1	1.014037988E1
1.151898353E0	5.910272002E-1	-1.435693540E-2	1.010728264E1	1.012455834E1
1.153094291E0	6.197410822E-1	4.785645287E-3	1.007617569E1	1.009521760E1
1.154290228E0	6.580262184E-1	1.435693540E-2	1.003549862E1	1.005705907E1
1.155486166E0	6.915257573E-1	9.571290575E-3	1.000439167E1	1.002826766E1
1.156682103E0	7.274180651E-1	1.196411345E-2	9.975677490E0	1.000217084E1
1.157878093E0	7.585247755E-1	2.153540403E-2	9.923035622E0	9.952007815E0
1.159074030E0	7.704889178E-1	3.110669367E-2	9.882357597E0	9.912396909E0
1.160269968E0	7.704889178E-1	4.785645381E-2	9.860821724E0	9.890993301E0
1.161465905E0	7.680960894E-1	7.178468257E-2	9.841679573E0	9.871868185E0
1.162661843E0	7.657032609E-1	9.810572863E-2	9.820143700E0	9.850439000E0
1.163857832E0	7.513462901E-1	1.196411327E-1	9.793823242E0	9.823329830E0
1.165053770E0	7.274180651E-1	1.507478207E-1	9.760323524E0	9.788553379E0
1.166249707E0	6.963114142E-1	1.818545163E-1	9.731609344E0	9.758183288E0
1.167445645E0	6.723831892E-1	2.081755698E-1	9.717252731E0	9.742711987E0
1.168641582E0	6.484549642E-1	2.416750938E-1	9.707681656E0	9.732316467E0
1.169837572E0	6.245267391E-1	2.632105052E-1	9.698110580E0	9.721762302E0
1.171033509E0	6.005984545E-1	2.656033039E-1	9.690931320E0	9.713156720E0
1.172229447E0	5.886343718E-1	2.608176768E-1	9.688538551E0	9.709907082E0
1.173425384E0	5.814558864E-1	2.440679073E-1	9.688538551E0	9.709039054E0
1.174621322E0	5.742774606E-1	2.177468538E-1	9.683753014E0	9.703209815E0
1.175817259E0	5.790630579E-1	1.866401732E-1	9.681360245E0	9.700457967E0
1.177013249E0	5.838487148E-1	1.579262912E-1	9.674181938E0	9.693070525E0
1.178209186E0	5.958128572E-1	1.268195957E-1	9.669396400E0	9.688565576E0
1.179405124E0	6.125625968E-1	9.092725813E-2	9.664610863E0	9.684431002E0
1.180601061E0	6.221339107E-1	5.982056633E-2	9.657432556E0	9.677635697E0
1.181796999E0	6.101697683E-1	2.153540403E-2	9.655039787E0	9.674325000E0
1.182992989E0	5.886343718E-1	-1.914258115E-2	9.667003632E0	9.684927262E0
1.184188926E0	5.766702294E-1	-4.546362907E-2	9.690931320E0	9.708180331E0
1.185384864E0	5.766702294E-1	-7.657032460E-2	9.729216576E0	9.746592571E0
1.186580801E0	5.790630579E-1	-1.124626622E-1	9.772287369E0	9.790074683E0
1.187776739E0	5.886343718E-1	-1.387837082E-1	9.812965393E0	9.831583857E0
1.188972728E0	5.934200287E-1	-1.770688742E-1	9.848857880E0	9.868307973E0
1.190168666E0	5.838487148E-1	-2.129612118E-1	9.884750366E0	9.904267848E0
1.191364603E0	5.790630579E-1	-2.488535494E-1	9.923035622E0	9.943031633E0
1.192560541E0	5.862415433E-1	-2.823530734E-1	9.944570541E0	9.965835924E0
1.193756478E0	5.982056856E-1	-3.086741269E-1	9.951749802E0	9.974490156E0
1.194952416E0	6.029912829E-1	-3.254238665E-1	9.963713646E0	9.987246307E0
1.196148405E0	6.029912829E-1	-3.397808075E-1	9.970891953E0	9.994885483E0
1.197344343E0	6.101697683E-1	-3.541377485E-1	9.966106415E0	9.991045879E0
1.198540280E0	6.149554253E-1	-3.661018610E-1	9.956535339E0	9.982224036E0
1.199736218E0	6.221339107E-1	-3.613162339E-1	9.939785004E0	9.965787773E0
1.200932155E0	6.269195080E-1	-3.469592929E-1	9.920642853E0	9.946484979E0
1.202128145E0	6.340979934E-1	-3.421736360E-1	9.901499748E0	9.927681518E0
1.203324082E0	6.436693072E-1	-3.469592929E-1	9.865608215E0	9.892669831E0
1.204520020E0	6.484549642E-1	-3.541377485E-1	9.817750931E0	9.845513736E0
1.205715957E0	6.556333899E-1	-3.684946895E-1	9.772287369E0	9.801185841E0
1.206911895E0	6.628118753E-1	-3.756731451E-1	9.734002113E0	9.763772173E0
1.208107884E0	6.723831892E-1	-3.804588020E-1	9.702896118E0	9.733603707E0
1.209303822E0	6.771687865E-1	-3.924229145E-1	9.669396400E0	9.701019537E0
1.210499759E0	6.723831892E-1	-4.043870270E-1	9.633503914E0	9.665403545E0
1.211695697E0	6.723831892E-1	-4.067798555E-1	9.616754532E0	9.648810120E0
1.212891634E0	6.867401004E-1	-4.067798555E-1	9.609575272E0	9.642666577E0
1.214087624E0	7.010970116E-1	-4.067798555E-1	9.609575272E0	9.643699693E0
1.215283561E0	6.939185858E-1	-3.972085714E-1	9.611968994E0	9.645166955E0
1.216479499E0	6.891329288E-1	-3.828516304E-1	9.614361763E0	9.646627995E0
1.217675436E0	7.082754970E-1	-3.852444589E-1	9.626325607E0	9.660031686E0
1.218871374E0	7.322037220E-1	-3.900300860E-1	9.645467758E0	9.681079177E0
1.220067364E0	7.561319470E-1	-3.804588020E-1	9.676574707E0	9.713525749E0
1.221263301E0	7.776673436E-1	-3.780659735E-1	9.702896118E0	9.741349673E0
1.222459239E0	8.039883971E-1	-3.804588020E-1	9.724431038E0	9.765024591E0
1.223655176E0	8.374879360E-1	-3.732803464E-1	9.760323524E0	9.803297382E0
1.224851114E0	8.757730722E-1	-3.732803464E-1	9.808179855E0	9.854273630E0
1.226047051E0	9.068797827E-1	-3.661018610E-1	9.851250648E0	9.899676805E0
1.227243041E0	9.379864931E-1	-3.493520916E-1	9.891928673E0	9.942440264E0
1.228438978E0	9.714859724E-1	-3.254238665E-1	9.937392235E0	9.990067573E0
1.229634916E0	9.978070259E-1	-3.014956415E-1	9.978070259E0	1.003236785E1
1.230830853E0	1.004985452E0	-2.775674164E-1	1.000678444E1	1.006095295E1
1.232026843E0	1.009771109E0	-2.297109663E-1	1.001396275E1	1.006736583E1
1.233222780E0	9.834501147E-1	-1.411765367E-1	9.810572624E0	9.860752515E0
1.234418718E0	9.595218897E-1	-4.307080805E-2	9.779465675E0	9.826519539E0
1.235614655E0	9.762716293E-1	3.110669367E-2	9.963713646E0	1.001147659E1
1.236810593E0	9.954141974E-1	7.657032460E-2	1.004506969E1	1.009455980E1
1.238006530E0	1.012163997E0	8.614161611E-2	1.008335495E1	1.013439408E1
1.239202520E0	1.031306505E0	6.460621208E-2	1.004746246E1	1.010045885E1
1.240398457E0	1.050449133E0	3.589234129E-2	1.003549862E1	1.009038969E1
1.241594395E0	1.064806104E0	2.392822644E-3	1.003549862E1	1.009183087E1
1.242790332E0	1.076770186E0	-4.307080805E-2	1.003789139E1	1.009557094E1
1.243986270E0	1.095912814E0	-6.939185411E-2	1.003549862E1	1.009539859E1
1.245182259E0	1.124626637E0	-7.896314561E-2	1.003549862E1	1.009862628E1
1.246378197E0	1.153340459E0	-9.332008660E-2	1.003549862E1	1.010198670E1
1.247574134E0	1.177268744E0	-9.810572863E-2	1.004985523E1	1.011905018E1
1.248770072E0	1.205982566E0	-8.374879509E-2	1.006181908E1	1.013418033E1
1.249966009E0	1.234696507E0	-5.742774159E-2	1.006421185E1	1.013982907E1
1.251161947E0	1.268195987E0	-3.589234129E-2	1.006421185E1	1.014386363E1
1.252357936E0	1.308874011E0	-3.110669367E-2	1.004985523E1	1.013477720E1
1.253553874E0	1.351944804E0	-2.632104978E-2	1.003310490E1	1.012381556E1
1.254749811E0	1.395015597E0	-4.785645287E-3	1.000917721E1	1.010592498E1
1.255945749E0	1.421336651E0	2.392822690E-2	9.999606133E0	1.010014323E1
1.257141686E0	1.430907965E0	4.546362907E-2	1.000199890E1	1.010393718E1
1.258337676E0	1.440479279E0	6.221338734E-2	9.990034103E0	1.009354410E1
1.259533614E0	1.452443361E0	7.896314561E-2	9.973284721E0	1.007880127E1
1.260729551E0	1.459621787E0	1.004985496E-1	9.954142570E0	1.006109090E1
1.261925489E0	1.450050473E0	1.339980662E-1	9.925428391E0	1.003168633E1
1.263121426E0	1.430907965E0	1.722832322E-1	9.894321442E0	9.998738716E0
1.264317416E0	1.409372568E0	2.081755698E-1	9.872786522E0	9.975047960E0
1.265513353E0	1.387837172E0	2.488535494E-1	9.863214493E0	9.963484342E0
1.266709291E0	1.361516118E0	2.847459018E-1	9.860821724E0	9.958444228E0
1.267905228E0	1.337587833E0	3.134597540E-1	9.860821724E0	9.956063645E0
1.269101166E0	1.318445325E0	3.397808075E-1	9.882357597E0	9.975707531E0
1.270297103E0	1.304088354E0	3.565305769E-1	9.911071777E0	1.000285481E1
1.271493093E0	1.289731383E0	3.661018610E-1	9.932606697E0	1.002267995E1
1.272689030E0	1.265803218E0	3.756731451E-1	9.968499184E0	1.005556384E1
1.273884968E0	1.249053478E0	3.637090325E-1	9.987641335E0	1.007201064E1
1.275080905E0	1.234696507E0	3.349951804E-1	1.000678444E1	1.008823235E1
1.276276895E0	1.227517962E0	3.134597540E-1	1.003310490E1	1.011277663E1
1.277472832E0	1.220339537E0	2.847459018E-1	1.002114105E1	1.009918694E1
1.278668770E0	1.213161111E0	2.488535494E-1	9.975677490E0	1.005225494E1
1.279864707E0	1.213161111E0	2.105683982E-1	9.908679008E0	9.984889515E0
1.281060645E0	1.196411371E0	1.627119333E-1	9.853643417E0	9.927344254E0
1.282256634E0	1.162911773E0	1.124626622E-1	9.779465675E0	9.849008099E0
1.283452572E0	1.115055323E0	5.742774159E-2	9.463613510E0	9.529251124E0
1.284648509E0	1.043270707E0	-2.632104978E-2	9.006584167E0	9.066844265E0
1.285844447E0	9.882357717E-1	-9.810572863E-2	8.968298912E0	9.023115873E0
1.287040384E0	9.499505758E-1	-1.555334777E-1	9.214759827E0	9.264901263E0
1.288236322E0	8.997012973E-1	-2.249253243E-1	9.413364410E0	9.458936692E0
1.289432311E0	8.422735929E-1	-3.062812984E-1	9.564111710E0	9.606011963E0
1.290628249E0	7.657032609E-1	-4.067798555E-1	9.631111145E0	9.670060663E0
1.291824186E0	6.963114142E-1	-4.953143001E-1	9.688538551E0	9.726148524E0
1.293020124E0	6.412764788E-1	-5.383850932E-1	9.757930756E0	9.793789188E0
1.294216061E0	5.838487148E-1	-5.599204898E-1	9.815358162E0	9.848636765E0
1.295412051E0	5.407779217E-1	-5.647061467E-1	9.879964828E0	9.910854595E0
1.296607989E0	5.216353536E-1	-5.455635786E-1	9.968499184E0	9.997035512E0
1.297803926E0	5.168496966E-1	-5.144568682E-1	1.004506969E1	1.007150558E1
1.298999864E0	5.168496966E-1	-4.666004181E-1	1.010010433E1	1.012407809E1
1.300195801E0	5.312066078E-1	-4.187439680E-1	1.012642574E1	1.014899134E1
1.301391791E0	5.623133183E-1	-3.661018610E-1	1.014078236E1	1.016295693E1
1.302587728E0	6.149554253E-1	-3.134597540E-1	1.015753174E1	1.018095664E1
1.303783666E0	6.867401004E-1	-2.584248483E-1	1.017428207E1	1.020070640E1
1.304979603E0	7.657032609E-1	-1.986042857E-1	1.019342422E1	1.022407172E1
1.306175541E0	8.494520187E-1	-1.411765367E-1	1.020778179E1	1.024403771E1
1.307371478E0	9.379864931E-1	-7.657032460E-2	1.021735287E1	1.026060336E1
1.308567468E0	1.026520967E0	-1.914258115E-2	1.023170948E1	1.028309246E1
1.309763405E0	1.103091240E0	2.632104978E-2	1.024845982E1	1.030768799E1
1.310959343E0	1.177268744E0	6.939185411E-2	1.025085258E1	1.031846673E1
1.312155280E0	1.239482164E0	1.028913707E-1	1.024845982E1	1.032365397E1
1.313351218E0	1.296909928E0	1.244267747E-1	1.026042366E1	1.034281157E1
1.314547207E0	1.339980721E0	1.363908947E-1	1.026520920E1	1.035319616E1
1.315743145E0	1.375872970E0	1.459621787E-1	1.026281643E1	1.035566185E1
1.316939082E0	1.418943882E0	1.555334777E-1	1.026760197E1	1.036635146E1
1.318135020E0	1.440479279E0	1.531406492E-1	1.026281643E1	1.036454696E1
1.319330957E0	1.454836130E0	1.579262912E-1	1.025085258E1	1.035477994E1
1.320526947E0	1.464407444E0	1.651047617E-1	1.025085258E1	1.035624099E1
1.321722884E0	1.469193101E0	1.555334777E-1	1.024606609E1	1.035203311E1
1.322918822E0	1.488335729E0	1.387837082E-1	1.023170948E1	1.034032316E1
1.324114759E0	1.502692580E0	1.196411327E-1	1.021974564E1	1.033032429E1
1.325310697E0	1.507478237E0	8.614161611E-2	1.020538902E1	1.031648565E1
1.326506634E0	1.509871125E0	3.589234129E-2	1.019820976E1	1.030943652E1
1.327702624E0	1.509871125E0	-1.196411345E-2	1.019820976E1	1.030938099E1
1.328898561E0	1.514656782E0	-5.264209956E-2	1.019103146E1	1.030311014E1
1.330094499E0	1.509871125E0	-8.614161611E-2	1.018863869E1	1.030026648E1
1.331290436E0	1.505085468E0	-1.435693651E-1	1.017667484E1	1.028837233E1
1.332486374E0	1.502692580E0	-2.033899277E-1	1.015753174E1	1.027009754E1
1.333682364E0	1.485942841E0	-2.392822653E-1	1.013599682E1	1.024713197E1
1.334878301E0	1.473978758E0	-2.679961324E-1	1.010728264E1	1.021771000E1
1.336074239E0	1.476371527E0	-2.991028428E-1	1.006899738E1	1.018105317E1
1.337270176E0	1.473978758E0	-3.326023519E-1	1.003310490E1	1.014625209E1
1.338466114E0	1.462014675E0	-3.493520916E-1	9.987641335E0	1.010012442E1
1.339662103E0	1.447657704E0	-3.565305769E-1	9.939785004E0	1.005097770E1
1.340858041E0	1.433300734E0	-3.637090325E-1	9.903892517E0	1.001367676E1
1.342053978E0	1.421336651E0	-3.589234054E-1	9.872786522E0	9.981028885E0
1.343249916E0	1.411765337E0	-3.565305769E-1	9.829715729E0	9.936976740E0
1.344445853E0	1.414158225E0	-3.541377485E-1	9.791430473E0	9.899361987E0
1.345641843E0	1.423729420E0	-3.541377485E-1	9.767501831E0	9.877069962E0
1.346837780E0	1.411765337E0	-3.445664644E-1	9.757930756E0	9.865547124E0
1.348033718E0	1.390229940E0	-3.278166950E-1	9.753145218E0	9.857182392E0
1.349229655E0	1.380658627E0	-3.206382394E-1	9.760323524E0	9.862704620E0
1.350425593E0	1.375872970E0	-2.943171859E-1	9.779465675E0	9.880161837E0
1.351621530E0	1.378265858E0	-2.464607358E-1	9.791430473E0	9.891029794E0
1.352817520E0	1.383051515E0	-1.866401732E-1	9.805787086E0	9.904601276E0
1.354013457E0	1.383051515E0	-1.124626622E-1	9.834501266E0	9.931912933E0
1.355209395E0	1.383051515E0	-4.546362907E-2	9.853643417E0	9.950336026E0
1.356405332E0	1.395015597E0	2.153540403E-2	9.853643417E0	9.951925486E0
1.357601270E0	1.426122308E0	9.571290761E-2	9.848857880E0	9.952034331E0
1.358797259E0	1.454836130E0	1.746760458E-1	9.853643417E0	9.961995206E0
1.359993197E0	1.481157184E0	2.608176768E-1	9.870393753E0	9.984313963E0
1.361189134E0	1.519442320E0	3.589234054E-1	9.887143135E0	1.000965186E1
1.362385072E0	1.572084427E0	4.594219327E-1	9.906285286E0	1.004076721E1
1.363581009E0	1.639083505E0	5.551348329E-1	9.913464546E0	1.006337661E1
1.364776999E0	1.696511269E0	6.436693072E-1	9.906285286E0	1.007109472E1
1.365972936E0	1.737189293E0	7.274180651E-1	9.901499748E0	1.007902083E1
1.367168874E0	1.775474429E0	7.992027402E-1	9.899106979E0	1.008877363E1
1.368364811E0	1.820937991E0	8.422735929E-1	9.903892517E0	1.010506442E1
1.369560749E0	1.861616015E0	8.805587292E-1	9.894321442E0	1.010636407E1
1.370756739E0	1.902294040E0	9.116654396E-1	9.870393753E0	1.009329130E1
1.371952676E0	1.942971945E0	9.332008362E-1	9.844072342E0	1.007728952E1
1.373148614E0	1.971685886E0	9.547362328E-1	9.827322960E0	1.006853232E1
1.374344551E0	1.990828395E0	9.738788009E-1	9.815358162E0	1.006245961E1
1.375540489E0	1.998006940E0	9.834501147E-1	9.793823242E0	1.004381300E1
1.376736426E0	1.988435626E0	9.786644578E-1	9.774680138E0	1.002277567E1
1.377932416E0	1.978864312E0	9.595218897E-1	9.762716293E0	1.000735808E1
1.379128353E0	1.969292998E0	9.188438654E-1	9.755537987E0	9.994644084E0
1.380324291E0	1.935793519E0	8.685946465E-1	9.741181374E0	9.969572095E0
1.381520228E0	1.902294040E0	8.231309652E-1	9.714859962E0	9.933517569E0
1.382716166E0	1.861616015E0	7.872386575E-1	9.688538551E0	9.897127773E0
1.383912155E0	1.806581140E0	7.465606928E-1	9.674181938E0	9.869695256E0
1.385108093E0	1.761117458E0	6.795616150E-1	9.671789169E0	9.854280513E0
1.386304030E0	1.718046665E0	6.053841114E-1	9.676574707E0	9.846536057E0
1.387499968E0	1.665404558E0	5.383850932E-1	9.674181938E0	9.831237309E0
1.388695905E0	1.607976794E0	4.713860750E-1	9.655039787E0	9.799366689E0
1.389891895E0	1.540977836E0	4.067798555E-1	9.640682220E0	9.771531928E0
1.391087832E0	1.476371527E0	3.373879790E-1	9.623932838E0	9.742360433E0
1.392283770E0	1.414158225E0	2.656033039E-1	9.602396965E0	9.709604321E0
1.393479707E0	1.356730461E0	1.962114573E-1	9.580862045E0	9.678436548E0
1.394675645E0	1.296909928E0	1.124626622E-1	9.556933403E0	9.645185290E0
1.395871634E0	1.229910851E0	2.632104978E-2	9.535398483E0	9.614426542E0
1.397067572E0	1.162911773E0	-4.785645381E-2	9.518648148E0	9.589542043E0
1.398263509E0	1.088734269E0	-1.292124242E-1	9.509077072E0	9.572073178E0
1.399459447E0	1.028913736E0	-2.129612118E-1	9.487542152E0	9.545547237E0
1.400655384E0	9.786644578E-1	-2.871387303E-1	9.449256897E0	9.504140607E0
1.401851322E0	9.212366939E-1	-3.445664644E-1	9.422935486E0	9.474128787E0
1.403047311E0	8.805587292E-1	-3.900300860E-1	9.403793335E0	9.452980283E0
1.404243249E0	8.470591903E-1	-4.402793646E-1	9.391828537E0	9.440222373E0
1.405439186E0	7.968099117E-1	-4.857429862E-1	9.394221306E0	9.440457946E0
1.406635124E0	7.441678643E-1	-5.144568682E-1	9.415757179E0	9.459119142E0
1.407831061E0	7.034898400E-1	-5.312066078E-1	9.444471359E0	9.485521476E0
1.409027051E0	6.675975323E-1	-5.407779217E-1	9.473184586E0	9.512063573E0
1.410222989E0	6.340979934E-1	-5.455635786E-1	9.513862610E0	9.550565514E0
1.411418926E0	6.053841114E-1	-5.455635786E-1	9.559326172E0	9.594000542E0
1.412614864E0	5.934200287E-1	-5.455635786E-1	9.595218658E0	9.629019060E0
1.413810801E0	5.862415433E-1	-5.455635786E-1	9.616754532E0	9.650040751E0
1.415006791E0	5.766702294E-1	-5.407779217E-1	9.638289452E0	9.670657313E0
1.416202728E0	5.694918036E-1	-5.335994363E-1	9.667003632E0	9.698453922E0
1.417398666E0	5.694918036E-1	-5.264210105E-1	9.693324089E0	9.724298015E0
1.418594603E0	5.814558864E-1	-5.144568682E-1	9.707681656E0	9.738677526E0
1.419790541E0	5.982056856E-1	-5.144568682E-1	9.710074425E0	9.742076845E0
1.420986530E0	6.101697683E-1	-5.168496966E-1	9.717252731E0	9.750099558E0
1.422182468E0	6.197410822E-1	-5.024927258E-1	9.729216576E0	9.761876517E0
1.423378405E0	6.340979934E-1	-4.881358147E-1	9.724431038E0	9.757300644E0
1.424574343E0	6.556333899E-1	-4.618147612E-1	9.722038269E0	9.755057976E0
1.425770280E0	6.891329288E-1	-4.187439680E-1	9.736394882E0	9.769730601E0
1.426966218E0	7.250252366E-1	-3.756731451E-1	9.748359680E0	9.782500108E0
1.428162207E0	7.417750359E-1	-3.373879790E-1	9.748359680E0	9.782360518E0
1.429358145E0	7.561319470E-1	-2.991028428E-1	9.753145218E0	9.786983175E0
1.430554082E0	7.848458290E-1	-2.703889608E-1	9.769894600E0	9.805097330E0
1.431750020E0	8.087740541E-1	-2.368894368E-1	9.793823242E0	9.830015553E0
1.432945957E0	8.231309652E-1	-1.818545163E-1	9.810572624E0	9.846722849E0
1.434141947E0	8.374879360E-1	-1.387837082E-1	9.822537422E0	9.859152518E0
1.435337884E0	8.614161611E-1	-1.459621787E-1	9.824930191E0	9.863700929E0
1.436533822E0	8.949156404E-1	-1.890329868E-1	9.817750931E0	9.860265758E0
1.437729759E0	9.379864931E-1	-2.584248483E-1	9.801001549E0	9.849174251E0
1.438925697E0	9.810572863E-1	-3.302095234E-1	9.810572624E0	9.865031523E0
1.440121686E0	1.000199914E0	-3.421736360E-1	9.863214493E0	9.919701749E0
1.441317624E0	9.978070259E-1	-2.991028428E-1	9.923035622E0	9.977560690E0
1.442513561E0	9.738788009E-1	-2.249253243E-1	9.980463028E0	1.003038751E1
1.443709499E0	9.355936646E-1	-1.363908947E-1	1.001396275E1	1.005849829E1
1.444905436E0	9.092726111E-1	-3.349951655E-2	1.003071213E1	1.007189578E1
1.446101374E0	9.068797827E-1	7.178468257E-2	1.004506969E1	1.008617912E1
1.447297364E0	9.020941257E-1	1.603191197E-1	1.005464077E1	1.009630017E1
1.448493301E0	9.068797827E-1	2.273181528E-1	1.006899738E1	1.011230996E1
1.449689239E0	9.260223508E-1	2.919243574E-1	1.008096218E1	1.012761254E1
1.450885176E0	9.499505758E-1	3.469592929E-1	1.007617569E1	1.012680124E1
1.452081114E0	9.834501147E-1	4.043870270E-1	1.007139015E1	1.012736899E1
1.453277103E0	1.024128079E0	4.450650215E-1	1.006660461E1	1.012834881E1
1.454473041E0	1.083948612E0	4.307080805E-1	1.006660461E1	1.013395197E1
1.455668978E0	1.158126116E0	4.139583111E-1	1.006899738E1	1.014383191E1
1.456864916E0	1.232303619E0	4.307080805E-1	1.000917721E1	1.009394423E1
1.458060905E0	1.289731383E0	4.522434771E-1	9.927821159E0	1.002145519E1
1.459256843E0	1.328016520E0	4.833501875E-1	9.858428955E0	9.959210649E0
1.460452780E0	1.361516118E0	5.192425251E-1	9.798608780E0	9.906365275E0
1.461648718E0	1.399801254E0	5.383850932E-1	9.748359680E0	9.863053204E0
1.462844655E0	1.421336651E0	5.527420044E-1	9.698110580E0	9.817284270E0
1.464040593E0	1.433300734E0	5.599204898E-1	9.657432556E0	9.779256900E0
1.465236582E0	1.445264935E0	5.551348329E-1	9.638289452E0	9.761843523E0
1.466432520E0	1.450050473E0	5.383850932E-1	9.628718376E0	9.752165014E0
1.467628457E0	1.457229018E0	5.144568682E-1	9.614361763E0	9.737768450E0
1.468824395E0	1.466800332E0	4.857429862E-1	9.602396965E0	9.725917794E0
1.470020332E0	1.454836130E0	4.618147612E-1	9.585647583E0	9.706413376E0
1.471216270E0	1.438086390E0	4.307080805E-1	9.559326172E0	9.676482769E0
1.472412259E0	1.433300734E0	3.924229145E-1	9.525827408E0	9.641044266E0
1.473608197E0	1.423729420E0	3.517449200E-1	9.499505997E0	9.612041621E0
1.474804134E0	1.411765337E0	3.158525825E-1	9.489934921E0	9.599568169E0
1.476000072E0	1.395015597E0	2.775674164E-1	9.477970123E0	9.584102976E0
1.477196009E0	1.373480201E0	2.321037948E-1	9.480362892E0	9.582150103E0
1.478391999E0	1.354337573E0	1.914258152E-1	9.485149384E0	9.583263167E0
1.479587936E0	1.344766378E0	1.531406492E-1	9.463613510E0	9.559907392E0
1.480783874E0	1.320838094E0	1.148554832E-1	9.439684868E0	9.532337355E0
1.481979811E0	1.282552958E0	7.657032460E-2	9.415757179E0	9.503014699E0
1.483175749E0	1.251446247E0	3.828516230E-2	9.379864693E0	9.463056859E0
1.484371739E0	1.239482164E0	1.196411345E-2	9.346364975E0	9.428202237E0
1.485567676E0	1.227517962E0	1.196411345E-2	9.284152031E0	9.364957150E0
1.486763614E0	1.203589797E0	9.092725813E-2	9.116654396E0	9.196210282E0
1.487959551E0	1.182054400E0	2.512463629E-1	8.872586250E0	8.954505241E0
1.489155489E0	1.177268744E0	4.019941986E-1	8.688339233E0	8.776947058E0
1.490351426E0	1.167697430E0	4.737788737E-1	8.688339233E0	8.779249532E0
1.491547416E0	1.131805062E0	4.522434771E-1	8.831908226E0	8.915610454E0
1.492743353E0	1.086341500E0	3.613162339E-1	9.020941734E0	9.093298469E0
1.493939291E0	1.055234790E0	2.464607358E-1	9.221938133E0	9.285386707E0
1.495135228E0	1.016949654E0	1.387837082E-1	9.413364410E0	9.469153977E0
1.496331166E0	9.667003751E-1	3.828516230E-2	9.616754532E0	9.665295810E0
1.497527155E0	9.403793216E-1	-7.417750359E-2	9.817750931E0	9.862963495E0
1.498723093E0	9.260223508E-1	-1.722832322E-1	9.980463028E0	1.002481128E1
1.499919030E0	9.284151793E-1	-2.536391914E-1	1.010728264E1	1.015300202E1
1.501114968E0	9.403793216E-1	-3.349951804E-1	1.022453117E1	1.027314814E1
1.502310957E0	9.523434043E-1	-4.067798555E-1	1.031785107E1	1.036969037E1
1.503506843E0	9.643075466E-1	-4.402793646E-1	1.036331463E1	1.041739051E1
1.504702832E0	9.762716293E-1	-4.522434771E-1	1.037767220E1	1.043329817E1
1.505898770E0	9.834501147E-1	-4.498506486E-1	1.036092186E1	1.041720891E1
1.507094707E0	9.858429432E-1	-4.402793646E-1	1.032981491E1	1.038608725E1
1.508290645E0	9.643075466E-1	-4.354937077E-1	1.030588722E1	1.036006058E1
1.509486634E0	9.379864931E-1	-4.378865361E-1	1.026999474E1	1.032203251E1
1.510682572E0	9.212366939E-1	-4.594219327E-1	1.021496010E1	1.026670129E1
1.511878509E0	8.997012973E-1	-4.618147612E-1	1.013838959E1	1.018870349E1
1.513074447E0	8.877372146E-1	-4.498506486E-1	1.003071213E1	1.007996174E1
1.514270384E0	8.685946465E-1	-4.522434771E-1	9.908679008E0	9.956952371E0
1.515466374E0	8.327022791E-1	-4.618147612E-1	9.789037704E0	9.835238947E0
1.516662311E0	7.992027402E-1	-4.594219327E-1	9.667003632E0	9.710857467E0
1.517858249E0	7.752745152E-1	-4.474578202E-1	9.552147865E0	9.593998015E0
1.519054186E0	7.752745152E-1	-4.259224236E-1	9.463613510E0	9.504864079E0
1.520250124E0	7.776673436E-1	-4.067798555E-1	9.394221306E0	9.435127466E0
1.521446061E0	7.752745152E-1	-3.924229145E-1	9.339186668E0	9.379523119E0
1.522642051E0	7.848458290E-1	-3.732803464E-1	9.305686951E0	9.346182687E0
1.523837989E0	7.968099117E-1	-3.517449200E-1	9.281759262E0	9.322536432E0
1.525033926E0	8.087740541E-1	-3.254238665E-1	9.272188187E0	9.313081656E0
1.526229864E0	8.231309652E-1	-2.895315289E-1	9.274580956E0	9.315536753E0
1.527425801E0	8.350951076E-1	-2.344966233E-1	9.272188187E0	9.312671275E0
1.528621739E0	8.518448472E-1	-1.914258152E-1	9.260223389E0	9.301291346E0
1.529817728E0	8.685946465E-1	-1.627119333E-1	9.248259544E0	9.290384084E0
1.531013666E0	8.829515576E-1	-1.220339537E-1	9.236295700E0	9.279205462E0
1.532209603E0	8.997012973E-1	-6.221338734E-2	9.207581520E0	9.251642577E0
1.533405541E0	9.403793216E-1	3.828516230E-2	9.178867340E0	9.226992179E0
1.534601530E0	1.000199914E0	1.986042857E-1	9.111868858E0	9.168751148E0
1.535797468E0	1.062413216E0	4.091726840E-1	8.982656479E0	9.054516086E0
1.536993405E0	1.088734269E0	6.317051649E-1	8.793622971E0	8.883253834E0
1.538189343E0	1.081555843E0	8.207381964E-1	8.578269005E0	8.685048840E0
1.539385280E0	1.062413216E0	9.619147182E-1	8.391629219E0	8.513133543E0
1.540581218E0	1.024128079E0	1.045663476E0	8.250452042E0	8.379272601E0
1.541777207E0	9.786644578E-1	1.076770186E0	8.185846329E0	8.314162512E0
1.542973145E0	9.092726111E-1	1.095912814E0	8.178668022E0	8.301711402E0
1.544169082E0	8.350951076E-1	1.098305583E0	8.233702660E0	8.348503967E0
1.545365020E0	7.704889178E-1	1.074377418E0	8.329415321E0	8.433688375E0
1.546560957E0	7.082754970E-1	1.007378340E0	8.456234932E0	8.545430037E0
1.547756947E0	6.532405615E-1	8.973084688E-1	8.611768723E0	8.682997538E0
1.548952884E0	6.077769399E-1	7.944171429E-1	8.786444664E0	8.843195194E0
1.550148822E0	5.647061467E-1	7.058826685E-1	8.977870941E0	9.023266039E0
1.551344759E0	5.359922647E-1	6.053841114E-1	9.171689034E0	9.207261121E0
1.552540697E0	5.216353536E-1	5.072783828E-1	9.360722542E0	9.388959543E0
1.553736686E0	5.048855543E-1	4.259224236E-1	9.535398483E0	9.558250026E0
1.554932624E0	4.977070987E-1	3.613162339E-1	9.688538551E0	9.708040020E0
1.556128561E0	4.977070987E-1	3.038884699E-1	9.832108498E0	9.849386685E0
1.557324499E0	5.120640397E-1	2.416750938E-1	9.963713646E0	9.979789880E0
1.558520436E0	5.551348329E-1	1.818545163E-1	1.008335495E1	1.010026202E1
1.559716374E0	6.077769399E-1	1.196411327E-1	1.019342422E1	1.021222817E1
1.560912364E0	6.699903607E-1	9.571290575E-3	1.028913784E1	1.031093285E1
1.562108301E0	7.657032609E-1	-1.842473447E-1	1.046620655E1	1.049579574E1
1.563304239E0	8.829515576E-1	-3.637090325E-1	1.058106136E1	1.062406454E1
1.564500176E0	9.714859724E-1	-4.235295951E-1	1.053081226E1	1.058400535E1
1.565696114E0	1.026520967E0	-3.996013701E-1	1.043749237E1	1.049545966E1
1.566892103E0	1.091127157E0	-3.326023519E-1	1.034656525E1	1.040925527E1
1.568088041E0	1.170090318E0	-2.560320199E-1	1.030110168E1	1.037050431E1
1.569283978E0	1.249053478E0	-1.938186288E-1	1.028435135E1	1.036173648E1
1.570479916E0	1.335195065E0	-1.603191197E-1	1.029870892E1	1.038613756E1
1.571675853E0	1.418943882E0	-1.579262912E-1	1.033699417E1	1.043512295E1
1.572871843E0	1.495514154E0	-1.698904037E-1	1.038724327E1	1.049572523E1
1.574067780E0	1.569691658E0	-1.914258152E-1	1.043031406E1	1.054950365E1
1.575263718E0	1.651047587E0	-2.153540403E-1	1.046620655E1	1.059782124E1
1.576459655E0	1.713261008E0	-2.392822653E-1	1.049731255E1	1.063889515E1
1.577655593E0	1.751546144E0	-2.703889608E-1	1.050449181E1	1.065295134E1
1.578851582E0	1.794616938E0	-3.086741269E-1	1.048534870E1	1.064229614E1
1.580047520E0	1.856830359E0	-3.565305769E-1	1.044945621E1	1.061913689E1
1.581243457E0	1.926222205E0	-3.972085714E-1	1.039681435E1	1.058120292E1
1.582439395E0	1.988435626E0	-4.307080805E-1	1.032502937E1	1.052357436E1
1.583635332E0	2.033899307E0	-4.618147612E-1	1.024606609E1	1.045618906E1
1.584831270E0	2.065006018E0	-4.809573591E-1	1.016710377E1	1.038583501E1
1.586027259E0	2.093719721E0	-4.905286431E-1	1.008335495E1	1.031010803E1
1.587223197E0	2.120040894E0	-4.833501875E-1	9.997213364E0	1.023095674E1
1.588419134E0	2.146361828E0	-4.689932466E-1	9.927821159E0	1.016801144E1
1.589615072E0	2.177468538E0	-4.522434771E-1	9.882357597E0	1.012950567E1
1.590811009E0	2.213361025E0	-4.498506486E-1	9.844072342E0	1.009985608E1
1.592006999E0	2.244467735E0	-4.618147612E-1	9.808179855E0	1.007230363E1
1.593202936E0	2.258824587E0	-4.594219327E-1	9.777072906E0	1.004512377E1
1.594398874E0	2.268395901E0	-4.546363056E-1	9.762716293E0	1.003309242E1
1.595594811E0	2.304288149E0	-4.498506486E-1	9.750752449E0	1.002942086E1
1.596790749E0	2.337787628E0	-4.426721931E-1	9.736394882E0	1.002290352E1
1.597986739E0	2.368894339E0	-4.498506486E-1	9.729216576E0	1.002355631E1
1.599182676E0	2.404786825E0	-4.618147612E-1	9.731609344E0	1.003496353E1
1.600378614E0	2.428714991E0	-4.761717021E-1	9.731609344E0	1.004139514E1
1.601574551E0	2.445464849E0	-4.953143001E-1	9.719645500E0	1.003479662E1
1.602770489E0	2.455035925E0	-5.048855543E-1	9.705288887E0	1.002370905E1
1.603966478E0	2.438286304E0	-5.288137794E-1	9.690931320E0	1.000694928E1
1.605162416E0	2.419143677E0	-5.479564071E-1	9.686145782E0	9.998696539E0
1.606358353E0	2.416750908E0	-5.647061467E-1	9.681360245E0	9.994414148E0
1.607554291E0	2.409572363E0	-5.814558864E-1	9.674181938E0	9.986687443E0
1.608750228E0	2.390429735E0	-5.886343718E-1	9.683753014E0	9.991782482E0
1.609946218E0	2.356930256E0	-6.101697683E-1	9.702896118E0	1.000368035E1
1.611142155E0	2.321038008E0	-6.197410822E-1	9.714859962E0	1.000748722E1
1.612338093E0	2.275574446E0	-6.245267391E-1	9.724431038E0	1.000663938E1
1.613534030E0	2.232503414E0	-6.412764788E-1	9.734002113E0	1.000730254E1
1.614729968E0	2.208575249E0	-6.484549642E-1	9.741181374E0	1.000944119E1
1.615925905E0	2.187039852E0	-6.508477330E-1	9.750752449E0	1.001418591E1
1.617121895E0	2.165504456E0	-6.652047038E-1	9.750752449E0	1.001044855E1
1.618317832E0	2.146361828E0	-6.723831892E-1	9.750752449E0	1.000680476E1
1.619513770E0	2.117648125E0	-6.819544435E-1	9.750752449E0	1.000133335E1
1.620709707E0	2.081755638E0	-7.058826685E-1	9.741181374E0	9.986119939E0
1.621905645E0	2.060220242E0	-7.322037220E-1	9.707681656E0	9.950864931E0
1.623101634E0	2.026720762E0	-7.489534616E-1	9.647860527E0	9.886846873E0
1.624297572E0	1.962114573E0	-7.561319470E-1	9.583254814E0	9.811238553E0
1.625493509E0	1.885544300E0	-7.561319470E-1	9.523433685E0	9.737700036E0
1.626689447E0	1.823330879E0	-7.585247755E-1	9.475577354E0	9.679176697E0
1.627885384E0	1.765903115E0	-7.537391186E-1	9.444471359E0	9.637664433E0
1.629081374E0	1.686939955E0	-7.465606928E-1	9.442078590E0	9.620601197E0
1.630277311E0	1.612762451E0	-7.417750359E-1	9.470791817E0	9.635721590E0
1.631473249E0	1.562513232E0	-7.250252366E-1	9.501898766E0	9.656769095E0
1.632669186E0	1.514656782E0	-7.106683254E-1	9.540184021E0	9.685780598E0
1.633865124E0	1.462014675E0	-6.867401004E-1	9.595218658E0	9.730227129E0
1.635061061E0	1.404586911E0	-6.436693072E-1	9.662218094E0	9.784969753E0
1.636257051E0	1.356730461E0	-5.886343718E-1	9.729216576E0	9.840978770E0
1.637452989E0	1.328016520E0	-5.312066078E-1	9.779465675E0	9.883509358E0
1.638648926E0	1.282552958E0	-4.857429862E-1	9.812965393E0	9.908338819E0
1.639844864E0	1.234696507E0	-4.426721931E-1	9.832108498E0	9.919213257E0
1.641040801E0	1.203589797E0	-3.900300860E-1	9.856036186E0	9.936911048E0
1.642236739E0	1.165304661E0	-3.541377485E-1	9.870393753E0	9.945251195E0
1.643432728E0	1.117448211E0	-3.230310678E-1	9.872786522E0	9.941074051E0
1.644628666E0	1.062413216E0	-2.847459018E-1	9.872786522E0	9.933867111E0
1.645824603E0	1.009771109E0	-2.608176768E-1	9.868000984E0	9.922958580E0
1.647020541E0	9.499505758E-1	-2.344966233E-1	9.858428955E0	9.906867125E0
1.648216530E0	9.020941257E-1	-2.177468538E-1	9.844072342E0	9.887717015E0
1.649412468E0	8.757730722E-1	-2.177468538E-1	9.839286804E0	9.880584850E0
1.650608405E0	8.446664214E-1	-2.105683982E-1	9.846465111E0	9.884871046E0
1.651804343E0	8.159525394E-1	-2.009970993E-1	9.858428955E0	9.894180100E0
1.653000280E0	8.111668825E-1	-1.986042857E-1	9.868000984E0	9.903276165E0
1.654196218E0	8.087740541E-1	-1.914258152E-1	9.882357597E0	9.917245131E0
1.655392207E0	8.015955687E-1	-1.698904037E-1	9.918250084E0	9.952040139E0
1.656588145E0	8.015955687E-1	-1.483550072E-1	9.961320877E0	9.994622468E0
1.657784082E0	7.944171429E-1	-1.292124242E-1	9.994820595E0	1.002717474E1
1.658980020E0	7.800601721E-1	-1.028913707E-1	1.002592659E1	1.005675318E1
1.660175957E0	7.657032609E-1	-7.417750359E-2	1.004985523E1	1.007925563E1
1.661371947E0	7.561319470E-1	-4.307080805E-2	1.005703354E1	1.008551011E1
1.662567884E0	7.417750359E-1	-2.392822690E-2	1.006660461E1	1.009392546E1
1.663763822E0	7.274180651E-1	-9.571290575E-3	1.006421185E1	1.009047019E1
1.664959759E0	7.178468108E-1	1.435693540E-2	1.005703354E1	1.008263030E1
1.666155697E0	7.058826685E-1	3.110669367E-2	1.005703354E1	1.008182333E1
1.667351686E0	7.034898400E-1	3.828516230E-2	1.005464077E1	1.007929386E1
1.668547624E0	7.082754970E-1	4.307080805E-2	1.005224800E1	1.007726149E1
1.669743561E0	7.130611539E-1	3.828516230E-2	1.005464077E1	1.007996642E1
1.670939499E0	7.250252366E-1	2.392822690E-2	1.005464077E1	1.008077552E1
1.672135436E0	7.322037220E-1	1.196411345E-2	1.005224800E1	1.007888661E1
1.673331374E0	7.393822074E-1	1.435693540E-2	1.005942631E1	1.008657275E1
1.674527364E0	7.513462901E-1	1.674975827E-2	1.007378292E1	1.010177728E1
1.675723301E0	7.800601721E-1	9.571290575E-3	1.008335495E1	1.011348765E1
1.676919239E0	8.207381964E-1	2.392822644E-3	1.009292603E1	1.012624178E1
1.678115176E0	8.614161611E-1	9.571290575E-3	1.010010433E1	1.013677646E1
1.679311114E0	8.973084688E-1	2.392822644E-3	1.009053326E1	1.013035190E1
1.680507103E0	9.475577474E-1	-2.153540403E-2	1.006421185E1	1.010874322E1
1.681703041E0	9.930213690E-1	-3.589234129E-2	1.003549862E1	1.008457298E1
1.682898978E0	1.019342422E0	-4.307080805E-2	1.000917721E1	1.006104082E1
1.684094916E0	1.033699393E0	-4.785645381E-2	9.992427826E0	1.004586674E1
1.685290853E0	1.050449133E0	-3.589234129E-2	9.980463028E0	1.003565513E1
1.686486791E0	1.074377418E0	-2.632104978E-2	9.973284721E0	1.003102127E1
1.687682780E0	1.093519926E0	-1.914258115E-2	9.970891953E0	1.003069482E1
1.688878718E0	1.098305583E0	-7.178467698E-3	9.963713646E0	1.002406685E1
1.690074655E0	1.103091240E0	0.000000000E0	9.956535339E0	1.001745508E1
1.691270593E0	1.112662554E0	2.392822690E-2	9.958928108E0	1.002092010E1
1.692466582E0	1.131805062E0	5.024927482E-2	9.973284721E0	1.003742576E1
1.693662520E0	1.136590719E0	6.460621208E-2	1.000439167E1	1.006895551E1
1.694858457E0	1.124626637E0	8.853443712E-2	1.004267693E1	1.010583907E1
1.696054395E0	1.119840980E0	1.244267747E-1	1.009053326E1	1.015324516E1
1.697250332E0	1.124626637E0	1.507478207E-1	1.013599682E1	1.019931083E1
1.698446270E0	1.134197950E0	1.746760458E-1	1.018146038E1	1.024592857E1
1.699642259E0	1.138983607E0	2.033899277E-1	1.021974564E1	1.028503048E1
1.700838197E0	1.136590719E0	2.273181528E-1	1.024128056E1	1.030666481E1
1.702034134E0	1.127019525E0	2.464607358E-1	1.025085258E1	1.031556565E1
1.703230072E0	1.124626637E0	2.632105052E-1	1.025803089E1	1.032285148E1
1.704426009E0	1.112662554E0	2.775674164E-1	1.025085258E1	1.031479715E1
1.705621999E0	1.110269666E0	2.895315289E-1	1.024128056E1	1.030535563E1
1.706817936E0	1.112662554E0	2.799602449E-1	1.023170948E1	1.029583773E1
1.708013874E0	1.105484009E0	2.656033039E-1	1.020778179E1	1.027090303E1
1.709209811E0	1.110269666E0	2.488535494E-1	1.018146038E1	1.024484077E1
1.710405749E0	1.115055323E0	2.153540403E-1	1.015753174E1	1.022082075E1
1.711601686E0	1.119840980E0	1.794617027E-1	1.012642574E1	1.018973742E1
1.712797676E0	1.134197950E0	1.483550072E-1	1.008335495E1	1.014802746E1
1.713993614E0	1.150947690E0	1.220339537E-1	1.003310490E1	1.009964191E1
1.715189551E0	1.172483087E0	9.332008660E-2	9.994820595E0	1.006378974E1
1.716385489E0	1.189232826E0	7.657032460E-2	9.966106415E0	1.003710191E1
1.717581426E0	1.191625714E0	6.699903309E-2	9.939785004E0	1.001118308E1
1.718777416E0	1.194018483E0	5.742774159E-2	9.913464546E0	9.985277031E0
1.719973353E0	1.196411371E0	5.024927482E-2	9.884750366E0	9.957018377E0
1.721169291E0	1.198804140E0	5.264209956E-2	9.860821724E0	9.933564699E0
1.722365228E0	1.198804140E0	5.264209956E-2	9.848857880E0	9.921688571E0
1.723561166E0	1.186840057E0	4.785645381E-2	9.836894035E0	9.908348188E0
1.724757155E0	1.182054400E0	6.221338734E-2	9.822537422E0	9.893602201E0
1.725953093E0	1.177268744E0	9.332008660E-2	9.784252167E0	9.855265638E0
1.727149030E0	1.150947690E0	1.292124242E-1	9.695717812E0	9.764646451E0
1.728344968E0	1.093519926E0	1.746760458E-1	9.499505997E0	9.563833527E0
1.729540905E0	9.858429432E-1	2.488535494E-1	9.085547447E0	9.142263769E0
1.730736843E0	8.470591903E-1	3.541377485E-1	8.611768723E0	8.660570613E0
1.731932832E0	7.106683254E-1	4.283152521E-1	8.360522270E0	8.401597232E0
1.733128770E0	6.077769399E-1	4.618147612E-1	8.291130066E0	8.326193815E0
1.734324707E0	5.216353536E-1	5.000999570E-1	8.257631302E0	8.289190439E0
1.735520645E0	4.354937077E-1	5.479564071E-1	8.207381248E0	8.237172934E0
1.736716582E0	3.804588020E-1	5.862415433E-1	8.221738815E0	8.251388804E0
1.737912572E0	3.445664644E-1	6.101697683E-1	8.310273170E0	8.339764587E0
1.739108509E0	3.158525825E-1	6.412764788E-1	8.389236450E0	8.419636963E0
1.740304447E0	3.158525825E-1	6.699903607E-1	8.468199730E0	8.500532725E0
1.741500384E0	3.110669553E-1	6.699903607E-1	8.571090698E0	8.602862634E0
1.742696322E0	3.182454109E-1	6.412764788E-1	8.683553696E0	8.713014430E0
1.743892311E0	3.493520916E-1	5.982056856E-1	8.812766075E0	8.839951517E0
1.745088249E0	4.067798555E-1	5.527420044E-1	8.961120605E0	8.987362020E0
1.746284186E0	4.905286431E-1	5.072783828E-1	9.114261627E0	9.141537875E0
1.747480124E0	5.886343718E-1	4.450650215E-1	9.269794464E0	9.299121609E0
1.748676061E0	7.010970116E-1	3.613162339E-1	9.418149948E0	9.451118182E0
1.749872051E0	8.183453679E-1	2.751746178E-1	9.523433685E0	9.562489183E0
1.751067989E0	9.260223508E-1	1.842473447E-1	9.611968994E0	9.658230295E0
1.752263926E0	1.016949654E0	2.153540403E-2	9.568898201E0	9.622809525E0
1.753459864E0	1.100698471E0	-1.531406492E-1	9.554540634E0	9.618951913E0
1.754655801E0	1.170090318E0	-2.751746178E-1	9.714859962E0	9.788939499E0
1.755851791E0	1.220339537E0	-3.661018610E-1	9.887143135E0	9.968894549E0
1.757047728E0	1.256231904E0	-4.354937077E-1	1.003071213E1	1.011844648E1
1.758243666E0	1.263410330E0	-4.737788737E-1	1.011685371E1	1.020643920E1
1.759439603E0	1.239482164E0	-4.833501875E-1	1.016710377E1	1.025377698E1
1.760635541E0	1.208375454E0	-4.857429862E-1	1.016710377E1	1.025017641E1
1.761831478E0	1.172483087E0	-5.072783828E-1	1.010010433E1	1.018057736E1
1.763027468E0	1.122233868E0	-5.240281820E-1	1.003549862E1	1.011163918E1
1.764223405E0	1.055234790E0	-4.977070987E-1	1.000678444E1	1.007457034E1
1.765419343E0	9.858429432E-1	-4.522434771E-1	9.997213364E0	1.005587816E1
1.766615280E0	9.164510965E-1	-4.043870270E-1	9.994820595E0	1.004489175E1
1.767811218E0	8.303094506E-1	-3.613162339E-1	9.982855797E0	1.002384024E1
1.769007207E0	7.369893789E-1	-3.110669553E-1	9.980463028E0	1.001247014E1
1.770203145E0	6.604190469E-1	-2.679961324E-1	9.975677490E0	1.000110577E1
1.771399082E0	6.053841114E-1	-2.392822653E-1	9.966106415E0	9.987343140E0
1.772595020E0	5.647061467E-1	-2.129612118E-1	9.961320877E0	9.979587122E0
1.773790957E0	5.359922647E-1	-2.009970993E-1	9.961320877E0	9.977755317E0
1.774986947E0	5.240281820E-1	-1.890329868E-1	9.954142570E0	9.969718818E0
1.776182884E0	5.120640397E-1	-1.770688742E-1	9.939785004E0	9.954541119E0
1.777378822E0	5.072783828E-1	-1.770688742E-1	9.906285286E0	9.920845373E0
1.778574759E0	5.144568682E-1	-1.794617027E-1	9.860821724E0	9.875863377E0
1.779770697E0	5.288137794E-1	-1.770688742E-1	9.822537422E0	9.838355493E0
1.780966634E0	5.359922647E-1	-1.555334777E-1	9.784252167E0	9.800156572E0
1.782162624E0	5.455635786E-1	-1.363908947E-1	9.738788605E0	9.755011306E0
1.783358561E0	5.479564071E-1	-1.220339537E-1	9.705288887E0	9.721511245E0
1.784554499E0	5.527420044E-1	-9.810572863E-2	9.676574707E0	9.692845120E0
1.785750436E0	5.694918036E-1	-6.939185411E-2	9.650253296E0	9.667291493E0
1.786946374E0	5.958128572E-1	-4.307080805E-2	9.628718376E0	9.647230982E0
1.788142364E0	6.245267391E-1	-2.871387079E-2	9.600004196E0	9.620339843E0
1.789338301E0	6.580262184E-1	-2.153540403E-2	9.559326172E0	9.581971568E0
1.790534239E0	6.987041831E-1	-1.674975827E-2	9.516255379E0	9.541885795E0
1.791730176E0	7.130611539E-1	-1.435693540E-2	9.482755661E0	9.509538225E0
1.792926114E0	7.250252366E-1	-1.674975827E-2	9.463613510E0	9.491360430E0
1.794122103E0	7.513462901E-1	-1.674975827E-2	9.451649666E0	9.481481066E0
1.795318041E0	7.800601721E-1	-2.153540403E-2	9.446864128E0	9.479040009E0
1.796513978E0	7.968099117E-1	-3.828516230E-2	9.446864128E0	9.480485939E0
1.797709916E0	8.135597110E-1	-6.699903309E-2	9.446864128E0	9.482067819E0
1.798905853E0	8.255237937E-1	-8.374879509E-2	9.473184586E0	9.509454747E0
1.800101843E0	8.327022791E-1	-8.614161611E-2	9.511469841E0	9.548239209E0
1.801297780E0	8.398807645E-1	-9.092725813E-2	9.537791252E0	9.575130779E0
1.802493718E0	8.422735929E-1	-9.571290761E-2	9.559326172E0	9.596838158E0
1.803689655E0	8.327022791E-1	-1.004985496E-1	9.568898201E0	9.605587219E0
1.804885593E0	8.350951076E-1	-1.028913707E-1	9.573683739E0	9.610587433E0
1.806081530E0	8.446664214E-1	-1.028913707E-1	9.568898201E0	9.606657107E0
1.807277520E0	8.494520187E-1	-1.052841991E-1	9.568898201E0	9.607104989E0
1.808473457E0	8.518448472E-1	-1.004985496E-1	9.571290970E0	9.609648819E0
1.809669395E0	8.422735929E-1	-9.092725813E-2	9.554540634E0	9.592024776E0
1.810865332E0	8.327022791E-1	-8.135596663E-2	9.533005714E0	9.569650455E0
1.812061270E0	8.470591903E-1	-7.417750359E-2	9.528220177E0	9.566085475E0
1.813257259E0	8.757730722E-1	-7.657032460E-2	9.513862610E0	9.554392877E0
1.814453197E0	8.973084688E-1	-8.374879509E-2	9.489934921E0	9.532630338E0
1.815649134E0	9.164510965E-1	-8.374879509E-2	9.480362892E0	9.524923991E0
1.816845072E0	9.403793216E-1	-9.092725813E-2	9.480362892E0	9.527321848E0
1.818041009E0	9.738788009E-1	-1.076770201E-1	9.501898766E0	9.552283204E0
1.819236999E0	9.978070259E-1	-1.387837082E-1	9.535398483E0	9.588467240E0
1.820432936E0	1.016949654E0	-1.746760458E-1	9.576076508E0	9.631507649E0
1.821628874E0	1.050449133E0	-2.057827413E-1	9.628718376E0	9.688034243E0
1.822824811E0	1.086341500E0	-2.368894368E-1	9.681360245E0	9.744998238E0
1.824020749E0	1.119840980E0	-2.488535494E-1	9.726823807E0	9.794236738E0
1.825216686E0	1.148554921E0	-2.416750938E-1	9.769894600E0	9.840143584E0
1.826412676E0	1.184447169E0	-2.297109663E-1	9.803394318E0	9.877359079E0
1.827608614E0	1.205982566E0	-2.273181528E-1	9.836894035E0	9.913150445E0
1.828804551E0	1.213161111E0	-2.225325108E-1	9.863214493E0	9.940034242E0
1.830000489E0	1.229910851E0	-2.033899277E-1	9.887143135E0	9.965422597E0
1.831196426E0	1.256231904E0	-1.866401732E-1	9.911071777E0	9.992111735E0
1.832392416E0	1.292124271E0	-1.722832322E-1	9.930213928E0	1.001540889E1
1.833588353E0	1.330409408E0	-1.483550072E-1	9.937392235E0	1.002715128E1
1.834784291E0	1.354337573E0	-1.244267747E-1	9.942177773E0	1.003477011E1
1.835980228E0	1.366301775E0	-1.028913707E-1	9.932606697E0	1.002666659E1
1.837176166E0	1.385444283E0	-7.417750359E-2	9.915857315E0	1.001245147E1
1.838372155E0	1.411765337E0	-4.546362907E-2	9.901499748E0	1.000174213E1
1.839568093E0	1.423729420E0	-1.196411345E-2	9.887143135E0	9.989131492E0
1.840764030E0	1.426122308E0	2.632104978E-2	9.870393753E0	9.972922865E0
1.841959968E0	1.428515077E0	5.264209956E-2	9.853643417E0	9.956792411E0
1.843155905E0	1.428515077E0	5.503492057E-2	9.844072342E0	9.947333534E0
1.844351895E0	1.438086390E0	6.221338734E-2	9.834501266E0	9.939284589E0
1.845547832E0	1.447657704E0	7.417750359E-2	9.817750931E0	9.924185028E0
1.846743770E0	1.447657704E0	8.374879509E-2	9.817750931E0	9.924261183E0
1.847939707E0	1.442872047E0	1.004985496E-1	9.822537422E0	9.928455122E0
1.849135645E0	1.440479279E0	1.220339537E-1	9.817750931E0	9.923613564E0
1.850331582E0	1.452443361E0	1.268195957E-1	9.812965393E0	9.920683683E0
1.851527572E0	1.454836130E0	1.196411327E-1	9.812965393E0	9.920945115E0
1.852723509E0	1.452443361E0	1.220339537E-1	9.817750931E0	9.925357290E0
1.853919447E0	1.445264935E0	1.268195957E-1	9.822537422E0	9.929104459E0
1.855115384E0	1.440479279E0	1.124626622E-1	9.822537422E0	9.928235987E0
1.856311322E0	1.445264935E0	9.571290761E-2	9.834501266E0	9.940591876E0
1.857507311E0	1.440479279E0	7.896314561E-2	9.846465111E0	9.951587356E0
1.858703249E0	1.442872047E0	5.982056633E-2	9.851250648E0	9.956535421E0
1.859899186E0	1.445264935E0	6.221338734E-2	9.860821724E0	9.966366756E0
1.861095124E0	1.440479279E0	5.982056633E-2	9.882357597E0	9.986969046E0
1.862291061E0	1.442872047E0	4.546362907E-2	9.906285286E0	1.001091578E1
1.863487051E0	1.445264935E0	3.110669367E-2	9.930213928E0	1.003488450E1
1.864682989E0	1.435693622E0	2.871387079E-2	9.954142570E0	1.005718624E1
1.865878926E0	1.430907965E0	3.110669367E-2	9.973284721E0	1.007545897E1
1.867074864E0	1.430907965E0	3.110669367E-2	9.997213364E0	1.009914552E1
1.868270801E0	1.416550994E0	4.307080805E-2	1.001156998E1	1.011137999E1
1.869466739E0	1.390229940E0	6.699903309E-2	1.002831936E1	1.012444652E1
1.870662728E0	1.383051515E0	8.374879509E-2	1.004985523E1	1.014492166E1
1.871858666E0	1.383051515E0	9.092725813E-2	1.005224800E1	1.014735380E1
1.873054603E0	1.378265858E0	1.004985496E-1	1.004506969E1	1.013968155E1
1.874250541E0	1.378265858E0	1.124626622E-1	1.004267693E1	1.013743678E1
1.875446478E0	1.380658627E0	1.172483116E-1	1.004746246E1	1.014255724E1
1.876642468E0	1.387837172E0	1.196411327E-1	1.005703354E1	1.015304534E1
1.877838405E0	1.397408366E0	1.244267747E-1	1.006660461E1	1.016389495E1
1.879034343E0	1.399801254E0	1.316052526E-1	1.007378292E1	1.017142398E1
1.880230280E0	1.402194023E0	1.292124242E-1	1.007139015E1	1.016935315E1
1.881426218E0	1.399801254E0	1.292124242E-1	1.007139015E1	1.016902350E1
1.882622207E0	1.399801254E0	1.316052526E-1	1.007617569E1	1.017379379E1
1.883818145E0	1.395015597E0	1.292124242E-1	1.007856941E1	1.017547668E1
1.885014082E0	1.387837172E0	1.268195957E-1	1.008335495E1	1.017920539E1
1.886210020E0	1.385444283E0	1.268195957E-1	1.007856941E1	1.017413881E1
1.887405957E0	1.371087432E0	1.196411327E-1	1.006421185E1	1.015788141E1
1.888601895E0	1.347159147E0	1.148554832E-1	1.006181908E1	1.015225259E1
1.889797884E0	1.320838094E0	1.172483116E-1	1.005703354E1	1.014407630E1
1.890993822E0	1.299302697E0	1.172483116E-1	1.004506969E1	1.012943038E1
1.892189759E0	1.287338614E0	1.124626622E-1	1.003310490E1	1.011598154E1
1.893385697E0	1.282552958E0	1.004985496E-1	1.002114105E1	1.010338112E1
1.894581634E0	1.280160069E0	9.332008660E-2	1.001635551E1	1.009826204E1
1.895777624E0	1.277767301E0	9.332008660E-2	1.000678444E1	1.008846533E1
1.896973561E0	1.263410330E0	1.004985496E-1	9.980463028E0	1.006061369E1
1.898169499E0	1.249053478E0	1.124626622E-1	9.951749802E0	1.003045894E1
1.899365436E0	1.249053478E0	1.076770201E-1	9.930213928E0	1.000903979E1
1.900561374E0	1.249053478E0	8.374879509E-2	9.934999466E0	1.001355895E1
1.901757364E0	1.241874933E0	5.264209956E-2	9.954142570E0	1.003144949E1
1.902953301E0	1.229910851E0	2.871387079E-2	9.956535339E0	1.003225304E1
1.904149239E0	1.217946768E0	4.785645287E-3	9.944570541E0	1.001887721E1
1.905345176E0	1.201196909E0	-2.871387079E-2	9.934999466E0	1.000739291E1
1.906541114E0	1.174875975E0	-6.221338734E-2	9.932606697E0	1.000204378E1
1.907737051E0	1.146162033E0	-9.571290761E-2	9.915857315E0	9.982338136E0
1.908933041E0	1.110269666E0	-1.148554832E-1	9.884750366E0	9.947571579E0
1.910128978E0	1.076770186E0	-1.172483116E-1	9.856036186E0	9.915373443E0
1.911324916E0	1.033699393E0	-1.292124242E-1	9.829715729E0	9.884763103E0
1.912520853E0	9.882357717E-1	-1.459621787E-1	9.791430473E0	9.842257140E0
1.913716843E0	9.427721500E-1	-1.627119333E-1	9.760323524E0	9.807099969E0
1.914912780E0	9.092726111E-1	-1.818545163E-1	9.753145218E0	9.797126588E0
1.916108718E0	8.781659007E-1	-2.057827413E-1	9.757930756E0	9.799527260E0
1.917304655E0	8.398807645E-1	-2.201396823E-1	9.753145218E0	9.791716030E0
1.918500593E0	8.087740541E-1	-2.249253243E-1	9.745966911E0	9.782053870E0
1.919696530E0	7.896314859E-1	-2.297109663E-1	9.745966911E0	9.780601006E0
1.920892520E0	7.704889178E-1	-2.488535494E-1	9.741181374E0	9.774773441E0
1.922088457E0	7.465606928E-1	-2.656033039E-1	9.726823807E0	9.759047051E0
1.923284395E0	7.226324677E-1	-2.727817893E-1	9.712467194E0	9.743132277E0
1.924480332E0	7.010970116E-1	-2.751746178E-1	9.705288887E0	9.734469193E0
1.925676270E0	6.819544435E-1	-2.632105052E-1	9.695717812E0	9.723234313E0
1.926872207E0	6.628118753E-1	-2.488535494E-1	9.683753014E0	9.709599379E0
1.928068197E0	6.269195080E-1	-2.344966233E-1	9.667003632E0	9.690148397E0
1.929264134E0	5.982056856E-1	-2.249253243E-1	9.662218094E0	9.683331035E0
1.930460072E0	5.862415433E-1	-1.986042857E-1	9.664610863E0	9.684411492E0
1.931656009E0	5.742774606E-1	-1.627119333E-1	9.655039787E0	9.673472131E0
1.932851999E0	5.575276613E-1	-1.292124242E-1	9.635896683E0	9.652877179E0
1.934047936E0	5.407779217E-1	-9.810572863E-2	9.616754532E0	9.632446897E0
1.935243874E0	5.144568682E-1	-8.135596663E-2	9.590433121E0	9.604566211E0
1.936439811E0	4.929214716E-1	-5.264209956E-2	9.564111710E0	9.576950222E0
1.937635749E0	4.833501875E-1	-1.674975827E-2	9.547362328E0	9.559604352E0
1.938831686E0	4.737788737E-1	9.571290575E-3	9.513862610E0	9.525656922E0
1.940027676E0	4.666004181E-1	3.349951655E-2	9.477970123E0	9.489507670E0
1.941223614E0	4.570291340E-1	5.264209956E-2	9.458827972E0	9.470009157E0
1.942419551E0	4.402793646E-1	6.699903309E-2	9.444471359E0	9.454965576E0
1.943615489E0	4.354937077E-1	7.896314561E-2	9.427721024E0	9.438104346E0
1.944811426E0	4.331009090E-1	9.332008660E-2	9.406186104E0	9.416614150E0
1.946007416E0	4.283152521E-1	1.004985496E-1	9.391828537E0	9.402127269E0
1.947203353E0	4.163511395E-1	1.052841991E-1	9.384650230E0	9.394471405E0
1.948399291E0	3.972085714E-1	1.268195957E-1	9.382257462E0	9.391518138E0
1.949595228E0	3.828516304E-1	1.387837082E-1	9.387042999E0	9.395872102E0
1.950791166E0	3.637090325E-1	1.435693651E-1	9.391828537E0	9.399964877E0
1.951987155E0	3.445664644E-1	1.483550072E-1	9.396614075E0	9.404099708E0
1.953183093E0	3.493520916E-1	1.483550072E-1	9.396614075E0	9.404276270E0
1.954379030E0	3.589234054E-1	1.459621787E-1	9.401400566E0	9.409381679E0
1.955574968E0	3.684946895E-1	1.507478207E-1	9.413364410E0	9.421780233E0
1.956770905E0	3.804588020E-1	1.555334777E-1	9.430113792E0	9.439066993E0
1.957966843E0	3.876372576E-1	1.507478207E-1	9.451649666E0	9.460796423E0
1.959162832E0	3.996013701E-1	1.435693651E-1	9.468399048E0	9.477915063E0
1.960358770E0	4.235295951E-1	1.435693651E-1	9.475577354E0	9.486124376E0
1.961554707E0	4.402793646E-1	1.507478207E-1	9.489934921E0	9.501338623E0
1.962750645E0	4.498506486E-1	1.531406492E-1	9.516255379E0	9.528112830E0
1.963946634E0	4.570291340E-1	1.579262912E-1	9.535398483E0	9.547651050E0
1.965142572E0	4.857429862E-1	1.627119333E-1	9.554540634E0	9.568263591E0
1.966338509E0	5.240281820E-1	1.674975902E-1	9.580862045E0	9.596644127E0
1.967534447E0	5.503492355E-1	1.651047617E-1	9.609575272E0	9.626737805E0
1.968730384E0	5.790630579E-1	1.555334777E-1	9.638289452E0	9.656921261E0
1.969926322E0	6.125625968E-1	1.507478207E-1	9.671789169E0	9.692340459E0
1.971122259E0	6.556333899E-1	1.531406492E-1	9.702896118E0	9.726227443E0
1.972318249E0	7.010970116E-1	1.555334777E-1	9.731609344E0	9.758070922E0
1.973514186E0	7.322037220E-1	1.603191197E-1	9.767501831E0	9.796219502E0
1.974710124E0	7.680960894E-1	1.555334777E-1	9.798608780E0	9.829898081E0
1.975906061E0	8.159525394E-1	1.435693651E-1	9.820143700E0	9.855029832E0
1.977101999E0	8.542376757E-1	1.387837082E-1	9.839286804E0	9.877274307E0
1.978297989E0	8.925228715E-1	1.435693651E-1	9.848857880E0	9.890258377E0
1.979493926E0	9.236295223E-1	1.579262912E-1	9.856036186E0	9.900478853E0
1.980689864E0	9.499505758E-1	1.651047617E-1	9.858428955E0	9.905467538E0
1.981885801E0	9.786644578E-1	1.627119333E-1	9.851250648E0	9.901080680E0
1.983081791E0	1.004985452E0	1.698904037E-1	9.836894035E0	9.889557259E0
1.984277728E0	1.028913736E0	1.579262912E-1	9.827322960E0	9.882301389E0
1.985473666E0	1.045663476E0	1.363908947E-1	9.824930191E0	9.881359615E0
1.986669603E0	1.057627559E0	1.316052526E-1	9.822537422E0	9.880189138E0
1.987865541E0	1.071984529E0	1.292124242E-1	9.827322960E0	9.886461614E0
1.989061478E0	1.086341500E0	1.268195957E-1	9.844072342E0	9.904644433E0
1.990257468E0	1.091127157E0	1.172483116E-1	9.860821724E0	9.921698983E0
1.991453405E0	1.091127157E0	1.052841991E-1	9.875179291E0	9.935834603E0
1.992649343E0	1.100698471E0	1.004985496E-1	9.891928673E0	9.953486321E0
1.993845280E0	1.124626637E0	1.004985496E-1	9.918250084E0	9.982312846E0
1.995041218E0	1.136590719E0	9.571290761E-2	9.954142570E0	1.001927910E1
1.996237207E0	1.131805062E0	9.571290761E-2	9.975677490E0	1.004013372E1
1.997433145E0	1.134197950E0	9.571290761E-2	9.980463028E0	1.004515845E1
1.998629082E0	1.138983607E0	9.092725813E-2	9.987641335E0	1.005278722E1
1.999825020E0	1.138983607E0	8.614161611E-2	9.997213364E0	1.006225517E1
2.001020957E0	1.134197950E0	7.896314561E-2	9.980463028E0	1.004501281E1
2.002216947E0	1.136590719E0	6.460621208E-2	9.968499184E0	1.003329400E1
2.003412884E0	1.131805062E0	4.067798331E-2	9.968499184E0	1.003262744E1
2.004608822E0	1.122233868E0	2.632104978E-2	9.963713646E0	1.002674879E1
2.005804759E0	1.119840980E0	1.914258115E-2	9.954142570E0	1.001695386E1
