"Time (s)"	"Acceleration x (m/s^2)"	"Acceleration y (m/s^2)"	"Acceleration z (m/s^2)"	"Absolute acceleration (m/s^2)"
3.437720100E-2  4.307080805E-1	3.077169895E0	1.347877026E1	1.383227138E1
3.557308700E-2	4.689932466E-1	3.067598581E0	1.346919823E1	1.382206268E1
3.676892000E-2	5.096712112E-1	3.065205812E0	1.343091393E1	1.378567011E1
3.796475300E-2	5.359922647E-1	3.077169895E0	1.337827110E1	1.373806391E1
3.916058700E-2	5.479564071E-1	3.110669374E0	1.332323647E1	1.369252169E1
4.035642000E-2	5.670989752E-1	3.148954630E0	1.326820183E1	1.364854191E1
4.155225300E-2	5.982056856E-1	3.172882795E0	1.321077347E1	1.359961657E1
4.274808700E-2	6.245267391E-1	3.196810961E0	1.316770267E1	1.356458727E1
4.394392000E-2	6.484549642E-1	3.218346357E0	1.313181114E1	1.353597839E1
4.513975300E-2	6.652047038E-1	3.235096216E0	1.309591866E1	1.350597757E1
4.633558700E-2	6.795616150E-1	3.256631613E0	1.305045509E1	1.346780723E1
4.753142000E-2	6.939185858E-1	3.270988464E0	1.299302673E1	1.341639416E1
4.872725300E-2	6.867401004E-1	3.273381472E0	1.293320656E1	1.335868519E1
4.992308700E-2	6.819544435E-1	3.268595695E0	1.285185051E1	1.327851050E1
5.111886800E-2	6.867401004E-1	3.266202927E0	1.274656582E1	1.317629059E1
5.231470100E-2	6.843472719E-1	3.273381472E0	1.263410378E1	1.306919797E1
5.351053500E-2	6.628118753E-1	3.263810158E0	1.250249863E1	1.293847936E1
5.470636800E-2	6.317051649E-1	3.251846075E0	1.235892868E1	1.279518161E1
5.590220100E-2	5.982056856E-1	3.256631613E0	1.221535969E1	1.265616497E1
5.709803500E-2	5.527420044E-1	3.268595695E0	1.210528946E1	1.255098699E1
5.829386800E-2	5.192425251E-1	3.287738323E0	1.203111267E1	1.248304883E1
5.948970100E-2	4.713860750E-1	3.309273720E0	1.191386414E1	1.237391030E1
6.068553500E-2	4.067798555E-1	3.330809116E0	1.172483063E1	1.219554888E1
6.188136800E-2	3.397808075E-1	3.352344513E0	1.150708389E1	1.199027291E1
6.307720100E-2	2.679961324E-1	3.376272678E0	1.129172993E1	1.178873207E1
6.427303500E-2	2.081755698E-1	3.407379389E0	1.110030460E1	1.161336875E1
6.546881600E-2	1.603191197E-1	3.426522017E0	1.093519974E1	1.146059984E1
6.666464900E-2	1.076770201E-1	3.448057413E0	1.078684425E1	1.132504760E1
6.786048200E-2	4.307080805E-2	3.471985579E0	1.066002464E1	1.121127398E1
6.905636800E-2	-3.110669367E-2	3.488735437E0	1.054038334E1	1.110278900E1
7.025214900E-2	-1.100698411E-1	3.495913982E0	1.041117096E1	1.098298733E1
7.144798200E-2	-1.770688742E-1	3.491128206E0	1.027956581E1	1.085766102E1
7.264381600E-2	-2.440679073E-1	3.486342669E0	1.014317513E1	1.072838086E1
7.383964900E-2	-3.110669553E-1	3.488735437E0	9.982855797E0	1.057948238E1
7.503548200E-2	-3.756731451E-1	3.488735437E0	9.810572624E0	1.041920057E1
7.623131600E-2	-4.450650215E-1	3.481556892E0	9.623932838E0	1.024399358E1
7.742714900E-2	-5.312066078E-1	3.471985579E0	9.425328255E0	1.005851266E1
7.862298200E-2	-6.101697683E-1	3.450450182E0	9.231510162E0	9.874142671E0
7.981881600E-2	-6.843472719E-1	3.436093330E0	9.044869423E0	9.699728421E0
8.101464900E-2	-7.752745152E-1	3.431307554E0	8.858229637E0	9.531167526E0
8.221048200E-2	-8.709874153E-1	3.414557934E0	8.669196129E0	9.358033259E0
8.340631600E-2	-9.762716293E-1	3.404986620E0	8.506484032E0	9.214516306E0
8.460209700E-2	-1.064806104E0	3.404986620E0	8.410771370E0	9.136127241E0
8.579793000E-2	-1.141376376E0	3.404986620E0	8.358129501E0	9.096977667E0
8.699376400E-2	-1.270588875E0	3.397808075E0	8.183453560E0	8.951447256E0
8.818959700E-2	-1.421336651E0	3.388236761E0	7.846065521E0	8.663780375E0
8.938543000E-2	-1.540977836E0	3.381058455E0	7.484749317E0	8.356293515E0
9.058126400E-2	-1.636690736E0	3.354737282E0	7.144968510E0	8.061240215E0
9.177709700E-2	-1.715653777E0	3.314059258E0	6.853044033E0	7.803247347E0
9.297293000E-2	-1.768295884E0	3.273381472E0	6.618547440E0	7.592566549E0
9.416876400E-2	-1.792224169E0	3.249453068E0	6.431907177E0	7.425661091E0
9.536459700E-2	-1.806581140E0	3.218346357E0	6.290730953E0	7.293475483E0
9.656043000E-2	-1.804188251E0	3.177668571E0	6.168696880E0	7.169762479E0
9.775626400E-2	-1.787438512E0	3.139383316E0	6.022734642E0	7.023104485E0
9.895209700E-2	-1.765903115E0	3.103491068E0	5.845665932E0	6.849954803E0
1.001479300E-1	-1.727617979E0	3.081955671E0	5.632704735E0	6.649095974E0
1.013437120E-1	-1.679761529E0	3.069991350E0	5.388636589E0	6.425250966E0
1.025395450E-1	-1.636690736E0	3.048455954E0	5.139782906E0	6.195902564E0
1.037353780E-1	-1.610369682E0	3.029313564E0	4.900500774E0	5.982051406E0
1.049312120E-1	-1.596012712E0	3.010170937E0	4.699503899E0	5.804629406E0
1.061270450E-1	-1.567298889E0	2.998206854E0	4.529613495E0	5.653588998E0
1.073228780E-1	-1.543370605E0	2.995813847E0	4.398007870E0	5.540700917E0
1.085187120E-1	-1.526620865E0	2.979064226E0	4.307080746E0	5.454937165E0
1.097145450E-1	-1.493121386E0	2.959921598E0	4.249652863E0	5.389814171E0
1.109103780E-1	-1.464407444E0	2.952743053E0	4.223331928E0	5.357211334E0
1.121062120E-1	-1.452443361E0	2.940778971E0	4.223331928E0	5.347364327E0
1.133020450E-1	-1.442872047E0	2.926422119E0	4.252045631E0	5.359637881E0
1.144978780E-1	-1.438086390E0	2.914458036E0	4.302295208E0	5.391836623E0
1.156937120E-1	-1.450050473E0	2.902493954E0	4.354937077E0	5.430708468E0
1.168894930E-1	-1.485942841E0	2.897708178E0	4.429114819E0	5.497435482E0
1.180852740E-1	-1.507478237E0	2.907279491E0	4.539184570E0	5.597227996E0
1.192811600E-1	-1.521835208E0	2.924029350E0	4.716253281E0	5.754039889E0
1.204769930E-1	-1.557727575E0	2.919243574E0	4.922036171E0	5.930846340E0
1.216728260E-1	-1.617548108E0	2.900100946E0	5.005784988E0	6.007073392E0
1.228686600E-1	-1.701296926E0	2.890529871E0	4.953142643E0	5.981905734E0
1.240644930E-1	-1.792224169E0	2.883351326E0	4.876572609E0	5.941947724E0
1.252603260E-1	-1.880758643E0	2.878565550E0	4.838287354E0	5.935690121E0
1.264561600E-1	-1.964507341E0	2.868994236E0	4.867001057E0	5.981481113E0
1.276519930E-1	-2.041077614E0	2.852244616E0	4.981856823E0	6.092634453E0
1.288478260E-1	-2.105684042E0	2.825923443E0	5.158925533E0	6.247740491E0
1.300436600E-1	-2.155933142E0	2.801995277E0	5.386243820E0	6.442891256E0
1.312394930E-1	-2.196611166E0	2.792423964E0	5.632704735E0	6.659586687E0
1.324353260E-1	-2.227717876E0	2.775674343E0	5.864808083E0	6.860252826E0
1.336311070E-1	-2.261217356E0	2.754138947E0	6.068198204E0	7.037145352E0
1.348269410E-1	-2.297109842E0	2.737389088E0	6.242874146E0	7.193294811E0
1.360227740E-1	-2.337787628E0	2.723032236E0	6.386443615E0	7.325763960E0
1.372186070E-1	-2.385644197E0	2.701496840E0	6.508477688E0	7.439735561E0
1.384144410E-1	-2.419143677E0	2.660818815E0	6.630511761E0	7.542937034E0
1.396102740E-1	-2.440679073E0	2.620140791E0	6.774080753E0	7.662259599E0
1.408061070E-1	-2.452643156E0	2.600998163E0	6.984649181E0	7.846398797E0
1.420019410E-1	-2.469393015E0	2.589034081E0	7.267002583E0	8.100020115E0
1.431977740E-1	-2.488535643E0	2.550748825E0	7.532605648E0	8.333023285E0
1.443936070E-1	-2.519642353E0	2.490928411E0	7.704888821E0	8.480485462E0
1.455894410E-1	-2.572284460E0	2.419143677E0	7.798209190E0	8.560430483E0
1.467852740E-1	-2.624926329E0	2.354537487E0	7.874779224E0	8.628223041E0
1.479811070E-1	-2.656033039E0	2.285145521E0	7.982456207E0	8.717568965E0
1.491769410E-1	-2.670390129E0	2.215753794E0	8.121239662E0	8.831482433E0
1.503726700E-1	-2.672782898E0	2.151147604E0	8.298309326E0	8.979595877E0
1.515685550E-1	-2.651247501E0	2.081755638E0	8.504091263E0	9.147807828E0
1.527643890E-1	-2.629712105E0	2.031506538E0	8.714659691E0	9.326719579E0
1.539602220E-1	-2.610569477E0	1.988435626E0	8.898907661E0	9.484698561E0
1.551560550E-1	-2.589034081E0	1.940579176E0	9.047262192E0	9.608428497E0
1.563518890E-1	-2.572284460E0	1.907079697E0	9.159725189E0	9.703306955E0
1.575477220E-1	-2.555534601E0	1.880758643E0	9.221938133E0	9.752545981E0
1.587435550E-1	-2.536391973E0	1.864008784E0	9.267401695E0	9.787366713E0
1.599393890E-1	-2.510071039E0	1.861616015E0	9.300901413E0	9.811872294E0
1.611352220E-1	-2.493321180E0	1.859223247E0	9.281759262E0	9.788994667E0
1.623310550E-1	-2.481357098E0	1.856830359E0	9.224330902E0	9.731044786E0
1.635268890E-1	-2.459821701E0	1.854437590E0	9.114261627E0	9.620780976E0
1.647226700E-1	-2.445464849E0	1.837687731E0	8.949156761E0	9.457526170E0
1.659185030E-1	-2.419143677E0	1.825723648E0	8.774480820E0	9.283158763E0
1.671143370E-1	-2.371287346E0	1.828116536E0	8.628518105E0	9.133254536E0
1.683101700E-1	-2.335394859E0	1.820937991E0	8.499305725E0	9.000448996E0
1.695060030E-1	-2.289931297E0	1.813759565E0	8.389236450E0	8.883287529E0
1.707018370E-1	-2.237289190E0	1.818545222E0	8.305487633E0	8.791683255E0
1.718976700E-1	-2.196611166E0	1.818545222E0	8.228917122E0	8.709034639E0
1.730935030E-1	-2.146361828E0	1.825723648E0	8.152346611E0	8.625595122E0
1.742893370E-1	-2.091326952E0	1.840080619E0	8.066205025E0	8.533651540E0
1.754851700E-1	-2.057827473E0	1.856830359E0	7.972885132E0	8.440934203E0
1.766810030E-1	-2.041077614E0	1.873580098E0	7.869993687E0	8.343446580E0
1.778768370E-1	-2.021935225E0	1.899901152E0	7.747959614E0	8.229746328E0
1.790726700E-1	-1.993221283E0	1.931007862E0	7.625925541E0	8.115199492E0
1.802685030E-1	-1.969292998E0	1.957328916E0	7.503891945E0	8.001102781E0
1.814642850E-1	-1.938186288E0	1.988435626E0	7.377072334E0	7.882362498E0
1.826601180E-1	-1.895115495E0	2.017149448E0	7.257431030E0	7.767281364E0
1.838559510E-1	-1.837687731E0	2.038684845E0	7.147361279E0	7.656246165E0
1.850517850E-1	-1.763510346E0	2.057827473E0	7.042077065E0	7.545559756E0
1.862476180E-1	-1.689332843E0	2.079362869E0	6.946363926E0	7.445103571E0
1.874434510E-1	-1.605584025E0	2.091326952E0	6.869793892E0	7.358370513E0
1.886392850E-1	-1.502692580E0	2.098505497E0	6.805187702E0	7.278213378E0
1.898351180E-1	-1.402194023E0	2.112862349E0	6.738188744E0	7.199550189E0
1.910309510E-1	-1.299302697E0	2.117648125E0	6.671189308E0	7.118805227E0
1.922267850E-1	-1.198804140E0	2.115255117E0	6.604190350E0	7.037525542E0
1.934226180E-1	-1.110269666E0	2.112862349E0	6.537191391E0	6.959292875E0
1.946183990E-1	-1.007378340E0	2.117648125E0	6.506084919E0	6.915806943E0
1.958141800E-1	-8.949156404E-1	2.146361828E0	6.534798622E0	6.936233570E0
1.970100660E-1	-7.657032609E-1	2.196611166E0	6.683153629E0	7.076435864E0
1.982058990E-1	-6.340979934E-1	2.232503414E0	6.843472958E0	7.226290465E0
1.994017320E-1	-5.647061467E-1	2.222932339E0	6.805187702E0	7.181288246E0
2.005975660E-1	-5.623133183E-1	2.203789711E0	6.539584160E0	6.923802882E0
2.017933990E-1	-5.886343718E-1	2.201396942E0	6.156732559E0	6.564906300E0
2.029892320E-1	-6.269195080E-1	2.203789711E0	5.793023586E0	6.229674103E0
2.041850660E-1	-6.723831892E-1	2.213361025E0	5.534598827E0	5.998570693E0
2.053808990E-1	-7.274180651E-1	2.210968018E0	5.436492920E0	5.913795049E0
2.065767320E-1	-7.896314859E-1	2.203789711E0	5.513063431E0	5.989497088E0
2.077725660E-1	-8.590233326E-1	2.213361025E0	5.723631859E0	6.196519165E0
2.089683990E-1	-9.427721500E-1	2.239681959E0	6.020341873E0	6.492265466E0
2.101642320E-1	-1.036092162E0	2.268395901E0	6.350551128E0	6.822653924E0
2.113600660E-1	-1.146162033E0	2.306680918E0	6.673582554E0	7.153402573E0
2.125558470E-1	-1.265803218E0	2.349751949E0	6.965506554E0	7.459348065E0
2.137516800E-1	-1.404586911E0	2.400001049E0	7.228717327E0	7.745141937E0
2.149475140E-1	-1.564906001E0	2.428714991E0	7.451249599E0	7.991790030E0
2.161433470E-1	-1.732403636E0	2.433500528E0	7.611568928E0	8.176743161E0
2.173391800E-1	-1.897508383E0	2.455035925E0	7.738388538E0	8.337289525E0
2.185350140E-1	-2.065006018E0	2.478964329E0	7.881958008E0	8.516735057E0
2.197308470E-1	-2.242074728E0	2.471785784E0	7.987242222E0	8.656365424E0
2.209266800E-1	-2.426322222E0	2.426322222E0	8.001599312E0	8.706300626E0
2.221225140E-1	-2.617748022E0	2.364108801E0	7.980063438E0	8.724851151E0
2.233183470E-1	-2.809173822E0	2.306680918E0	7.977670670E0	8.766724801E0
2.245141800E-1	-2.993421078E0	2.251646042E0	8.023134232E0	8.854443096E0
2.257100140E-1	-3.170490026E0	2.189432621E0	8.145168304E0	9.010515463E0
2.269057430E-1	-3.323630571E0	2.124826431E0	8.348558426E0	9.233625254E0
2.281016280E-1	-3.457628727E0	2.072184324E0	8.604590416E0	9.502006131E0
2.292974620E-1	-3.572484255E0	2.029113531E0	8.889336586E0	9.792867323E0
2.304932950E-1	-3.665804386E0	2.000399828E0	9.176474571E0	1.008203386E1
2.316891280E-1	-3.735196114E0	1.962114573E0	9.454042435E0	1.035280165E1
2.328849620E-1	-3.771088600E0	1.911865234E0	9.707681656E0	1.058845697E1
2.340807950E-1	-3.802195072E0	1.854437590E0	9.932606697E0	1.079593914E1
2.352766280E-1	-3.818944931E0	1.797009826E0	1.012642574E1	1.097078315E1
2.364724620E-1	-3.814159393E0	1.730010748E0	1.031306553E1	1.113104082E1
2.376682950E-1	-3.785445452E0	1.663011789E0	1.051884842E1	1.130227311E1
2.388641280E-1	-3.747160196E0	1.581655741E0	1.074855900E1	1.149236116E1
2.400599620E-1	-3.701696634E0	1.493121386E0	1.100459099E1	1.170610919E1
2.412557950E-1	-3.634697676E0	1.383051515E0	1.128215885E1	1.193360662E1
2.424515760E-1	-3.567698479E0	1.244267821E0	1.156451225E1	1.216612586E1
2.436474100E-1	-3.495913982E0	1.103091240E0	1.184925747E1	1.240335146E1
2.448432430E-1	-3.404986620E0	9.643075466E-1	1.214357471E1	1.264872443E1
2.460390760E-1	-3.321237803E0	8.279166222E-1	1.244985580E1	1.291181537E1
2.472349100E-1	-3.239881754E0	6.939185858E-1	1.277049446E1	1.319332731E1
2.484307430E-1	-3.151347399E0	5.694918036E-1	1.309352589E1	1.347945590E1
2.496265760E-1	-3.062813044E0	4.522434771E-1	1.342134190E1	1.377380725E1
2.508224100E-1	-2.969492912E0	3.493520916E-1	1.375872993E1	1.407986450E1
2.520182430E-1	-2.885744095E0	2.584248483E-1	1.408654690E1	1.438141530E1
2.532140760E-1	-2.804388046E0	1.890329868E-1	1.439522076E1	1.466706196E1
2.544099100E-1	-2.720639229E0	1.339980662E-1	1.468714523E1	1.493760585E1
2.556057430E-1	-2.648854733E0	9.092725813E-2	1.496232033E1	1.519525349E1
2.568015240E-1	-2.574677229E0	5.264209956E-2	1.522313786E1	1.543941904E1
2.579974100E-1	-2.507678032E0	3.828516230E-2	1.545763397E1	1.565976893E1
2.591931910E-1	-2.459821701E0	4.785645381E-2	1.564906025E1	1.584127835E1
2.603890240E-1	-2.431107759E0	5.982056633E-2	1.581655788E1	1.600241753E1
2.615848570E-1	-2.409572363E0	8.374879509E-2	1.597209072E1	1.615304104E1
2.627806910E-1	-2.388036966E0	1.148554832E-1	1.611087418E1	1.628730116E1
2.639765240E-1	-2.390429735E0	1.603191197E-1	1.623051643E1	1.640638657E1
2.651723570E-1	-2.404786825E0	2.297109663E-1	1.633580017E1	1.651345312E1
2.663681910E-1	-2.433500528E0	3.182454109E-1	1.641954803E1	1.660195057E1
2.675640240E-1	-2.457428932E0	4.139583111E-1	1.648894119E1	1.667619561E1
2.687598570E-1	-2.459821701E0	5.216353536E-1	1.655354691E1	1.674343876E1
2.699556910E-1	-2.462214470E0	6.364908218E-1	1.662293816E1	1.681635197E1
2.711515240E-1	-2.459821701E0	7.345965505E-1	1.669233131E1	1.688858430E1
2.723473570E-1	-2.440679073E0	8.327022791E-1	1.675454330E1	1.695184441E1
2.735431910E-1	-2.404786825E0	9.403793216E-1	1.681436539E1	1.701147249E1
2.747389720E-1	-2.349751949E0	1.033699393E0	1.687897110E1	1.707306458E1
2.759348050E-1	-2.270788670E0	1.127019525E0	1.695554161E1	1.714400903E1
2.771306390E-1	-2.179861546E0	1.203589797E0	1.701536179E1	1.719659738E1
2.783264720E-1	-2.072184324E0	1.270588875E0	1.704646873E1	1.721889777E1
2.795223050E-1	-1.945364833E0	1.320838094E0	1.705843353E1	1.721973322E1
2.807181390E-1	-1.799402595E0	1.354337573E0	1.705364609E1	1.720171285E1
2.819139720E-1	-1.648654819E0	1.380658627E0	1.702971840E1	1.716495237E1
2.831098050E-1	-1.512263894E0	1.395015597E0	1.699382591E1	1.711791838E1
2.843056390E-1	-1.385444283E0	1.411765337E0	1.693879128E1	1.705389067E1
2.855014720E-1	-1.253839016E0	1.430907965E0	1.685025787E1	1.695732291E1
2.866972530E-1	-1.122233868E0	1.452443361E0	1.674497223E1	1.684526923E1
2.878930870E-1	-1.000199914E0	1.493121386E0	1.664686775E1	1.674359631E1
2.890889720E-1	-8.781659007E-1	1.550549030E0	1.656790352E1	1.666345716E1
2.902847530E-1	-7.728816867E-1	1.600798368E0	1.644586945E1	1.654166024E1
2.914805870E-1	-6.843472719E-1	1.624726534E0	1.623290825E1	1.632836115E1
2.926764200E-1	-5.886343718E-1	1.641476393E0	1.598405552E1	1.607889816E1
2.938722530E-1	-4.857429862E-1	1.665404558E0	1.573280907E1	1.582816476E1
2.950680870E-1	-3.852444589E-1	1.708475351E0	1.550070477E1	1.559933170E1
2.962639200E-1	-2.967100143E-1	1.751546144E0	1.529252911E1	1.539536934E1
2.974597530E-1	-2.081755698E-1	1.787438512E0	1.510588932E1	1.521269751E1
2.986555870E-1	-1.172483116E-1	1.823330879E0	1.493599892E1	1.504733685E1
2.998514200E-1	-5.024927482E-2	1.859223247E0	1.477328682E1	1.488990395E1
3.010472530E-1	2.392822644E-3	1.907079697E0	1.461296749E1	1.473688494E1
3.022430870E-1	5.742774159E-2	1.957328916E0	1.441914940E1	1.455150521E1
3.034388680E-1	1.004985496E-1	2.014756680E0	1.418943787E1	1.433211399E1
3.046347010E-1	1.220339537E-1	2.093719721E0	1.395733452E1	1.411402641E1
3.058305350E-1	1.459621787E-1	2.177468538E0	1.373001671E1	1.390237509E1
3.070263680E-1	1.698904037E-1	2.254039049E0	1.351466274E1	1.370239628E1
3.082222010E-1	1.746760458E-1	2.325823545E0	1.331605816E1	1.351877849E1
3.094180350E-1	1.579262912E-1	2.400001049E0	1.314138222E1	1.335967336E1
3.106138680E-1	1.244267747E-1	2.469393015E0	1.300259781E1	1.323559344E1
3.118097010E-1	9.332008660E-2	2.536391973E0	1.289731407E1	1.314468346E1
3.130055350E-1	7.417750359E-2	2.600998163E0	1.280399418E1	1.306571700E1
3.142013680E-1	5.982056633E-2	2.651247501E0	1.272981644E1	1.300311187E1
3.153972010E-1	5.742774159E-2	2.679961443E0	1.267478180E1	1.295513740E1
3.165930350E-1	5.024927482E-2	2.691925526E0	1.263649654E1	1.292014059E1
3.177888160E-1	5.264209956E-2	2.699103832E0	1.262453270E1	1.290994805E1
3.189846490E-1	5.982056633E-2	2.682354212E0	1.263171101E1	1.291350942E1
3.201804820E-1	6.939185411E-2	2.636890650E0	1.266999626E1	1.294166963E1
3.213763160E-1	7.417750359E-2	2.584248543E0	1.274417305E1	1.300376059E1
3.225721490E-1	7.417750359E-2	2.526820660E0	1.282792187E1	1.307462827E1
3.237679820E-1	7.178468257E-2	2.457428932E0	1.292363548E1	1.315539677E1
3.249638160E-1	5.742774159E-2	2.376072884E0	1.303609753E1	1.325099464E1
3.261596490E-1	4.307080805E-2	2.299502611E0	1.314616776E1	1.334583433E1
3.273554820E-1	1.674975827E-2	2.218146563E0	1.326102352E1	1.344526681E1
3.285513160E-1	-2.392822690E-2	2.146361828E0	1.337109280E1	1.354228800E1
3.297471490E-1	-8.135596663E-2	2.084148407E0	1.346919823E1	1.362973199E1
3.309429820E-1	-1.507478207E-1	2.036292076E0	1.356969738E1	1.372245959E1
3.321388160E-1	-2.105683982E-1	2.012363911E0	1.365344620E1	1.380255558E1
3.333345970E-1	-2.775674164E-1	1.978864312E0	1.373719501E1	1.388176770E1
3.345304300E-1	-3.421736360E-1	1.954936147E0	1.380897903E1	1.395086951E1
3.357262640E-1	-4.019941986E-1	1.950150490E0	1.386880016E1	1.401100654E1
3.369220970E-1	-4.570291340E-1	1.942971945E0	1.392622757E1	1.406854043E1
3.381179300E-1	-5.000999570E-1	1.935793519E0	1.397647667E1	1.411875691E1
3.393137640E-1	-5.264210105E-1	1.926222205E0	1.402433395E1	1.416578250E1
3.405095970E-1	-5.383850932E-1	1.926222205E0	1.406022549E1	1.420176507E1
3.417054300E-1	-5.551348329E-1	1.942971945E0	1.408654690E1	1.423074552E1
3.429012640E-1	-5.670989752E-1	1.952543259E0	1.410808277E1	1.425384250E1
3.440970970E-1	-5.766702294E-1	1.954936147E0	1.409851074E1	1.424508087E1
3.452929300E-1	-5.862415433E-1	1.957328916E0	1.406501102E1	1.421264756E1
3.464887640E-1	-5.790630579E-1	1.950150490E0	1.401476192E1	1.416163666E1
3.476845970E-1	-5.527420044E-1	1.928615093E0	1.395733452E1	1.410078958E1
3.488803780E-1	-5.168496966E-1	1.902294040E0	1.389990711E1	1.403899120E1
3.500762120E-1	-4.809573591E-1	1.890329838E0	1.384247875E1	1.397923048E1
3.512720450E-1	-4.498506486E-1	1.875972986E0	1.378505135E1	1.391938507E1
3.524678780E-1	-4.211367965E-1	1.861616015E0	1.372523022E1	1.385730547E1
3.536637120E-1	-4.019941986E-1	1.847259045E0	1.367737389E1	1.380740822E1
3.548595450E-1	-3.708875179E-1	1.818545222E0	1.363908863E1	1.376478852E1
3.560553780E-1	-3.302095234E-1	1.792224169E0	1.359601784E1	1.371760937E1
3.572512120E-1	-2.895315289E-1	1.775474429E0	1.355533981E1	1.367418646E1
3.584470450E-1	-2.416750938E-1	1.749153376E0	1.350748348E1	1.362241001E1
3.596428780E-1	-2.033899277E-1	1.713261008E0	1.345244884E1	1.356263288E1
3.608387120E-1	-1.746760458E-1	1.672582984E0	1.339262867E1	1.349779790E1
3.620345450E-1	-1.435693651E-1	1.634297848E0	1.333520031E1	1.343573998E1
3.632303260E-1	-1.268195957E-1	1.596012712E0	1.327777290E1	1.337395204E1
3.644261600E-1	-1.100698411E-1	1.538584948E0	1.321316624E1	1.330289897E1
3.656219930E-1	-9.332008660E-2	1.471585870E0	1.312941742E1	1.321195956E1
3.668178260E-1	-6.939185411E-2	1.414158225E0	1.303370476E1	1.311038209E1
3.680136600E-1	-5.264209956E-2	1.366301775E0	1.294277763E1	1.301480098E1
3.692094930E-1	-5.024927482E-2	1.299302697E0	1.286620712E1	1.293174382E1
3.704053260E-1	-4.067798331E-2	1.232303619E0	1.281117249E1	1.287036780E1
3.716011600E-1	-2.632104978E-2	1.170090318E0	1.275853062E1	1.281210005E1
3.727969930E-1	-7.178467698E-3	1.105484009E0	1.271306705E1	1.276104308E1
3.739928260E-1	1.914258115E-2	1.050449133E0	1.268196011E1	1.272540459E1
3.751886600E-1	3.349951655E-2	1.007378340E0	1.265563869E1	1.269571282E1
3.763844930E-1	3.589234129E-2	9.690931439E-1	1.262453270E1	1.266172404E1
3.775802740E-1	1.674975827E-2	9.284151793E-1	1.255274773E1	1.258704536E1
3.787761070E-1	-2.392822690E-2	8.757730722E-1	1.243071365E1	1.246154858E1
3.799719410E-1	-7.417750359E-2	8.183453679E-1	1.227517986E1	1.230265143E1
3.811677740E-1	-1.124626622E-1	7.465606928E-1	1.211246777E1	1.213597446E1
3.823636070E-1	-1.507478207E-1	6.819544435E-1	1.195693493E1	1.197731521E1
3.835594410E-1	-1.986042857E-1	6.293123364E-1	1.180618668E1	1.182461507E1
3.847552740E-1	-2.368894368E-1	5.670989752E-1	1.165783215E1	1.167402108E1
3.859511070E-1	-2.679961324E-1	5.000999570E-1	1.151665497E1	1.153062286E1
3.871469410E-1	-2.991028428E-1	4.474578202E-1	1.138504982E1	1.139776471E1
3.883427740E-1	-3.182454109E-1	4.211367965E-1	1.125583744E1	1.126820806E1
3.895386070E-1	-3.254238665E-1	3.972085714E-1	1.113619614E1	1.114802851E1
3.907343890E-1	-3.158525825E-1	3.780659735E-1	1.100937653E1	1.102039329E1
3.919302740E-1	-3.014956415E-1	3.684946895E-1	1.087537861E1	1.088579569E1
3.931260550E-1	-2.871387303E-1	3.517449200E-1	1.074138069E1	1.075097355E1
3.943218890E-1	-2.512463629E-1	3.469592929E-1	1.060020447E1	1.060885669E1
3.955177220E-1	-2.057827413E-1	3.493520916E-1	1.045424175E1	1.046210132E1
3.967135550E-1	-1.627119333E-1	3.469592929E-1	1.031067276E1	1.031779185E1
3.979093890E-1	-1.316052526E-1	3.565305769E-1	1.016231823E1	1.016942210E1
3.991052220E-1	-9.571290761E-2	3.732803464E-1	9.985248566E0	9.992681727E0
4.003010550E-1	-3.828516230E-2	4.019941986E-1	9.815358162E0	9.823661280E0
4.014968890E-1	4.546362907E-2	4.546363056E-1	9.731609344E0	9.742329370E0
4.026927220E-1	1.339980662E-1	5.192425251E-1	9.722038269E0	9.736816543E0
4.038885550E-1	1.722832322E-1	5.383850932E-1	9.645467758E0	9.662017817E0
4.050843890E-1	1.651047617E-1	5.168496966E-1	9.413364410E0	9.428988425E0
4.062802220E-1	1.244267747E-1	4.881358147E-1	9.059226990E0	9.073221713E0
4.074760030E-1	8.853443712E-2	4.594219327E-1	8.693124771E0	8.705706470E0
4.086718370E-1	8.374879509E-2	4.522434771E-1	8.394021988E0	8.406613061E0
4.098676700E-1	8.853443712E-2	4.450650215E-1	8.147561073E0	8.160188274E0
4.110635030E-1	1.052841991E-1	4.139583111E-1	7.958528042E0	7.969982110E0
4.122593370E-1	1.363908947E-1	3.804588020E-1	7.834101200E0	7.844519934E0
4.134551700E-1	1.770688742E-1	3.565305769E-1	7.764709473E0	7.774907114E0
4.146510030E-1	2.368894368E-1	3.373879790E-1	7.719245911E0	7.730246095E0
4.158468370E-1	3.038884699E-1	3.278166950E-1	7.668996811E0	7.682013022E0
4.170426700E-1	3.804588020E-1	3.254238665E-1	7.594819069E0	7.611302535E0
4.182385030E-1	4.546363056E-1	3.326023519E-1	7.489534855E0	7.510689105E0
4.194343370E-1	5.168496966E-1	3.421736360E-1	7.360322475E0	7.386376876E0
4.206301180E-1	5.814558864E-1	3.708875179E-1	7.207181931E0	7.240104963E0
4.218259510E-1	6.388836503E-1	4.067798555E-1	7.037291527E0	7.077931492E0
4.230217850E-1	6.915257573E-1	4.378865361E-1	6.862615108E0	6.911254490E0
4.242176180E-1	7.537391186E-1	4.881358147E-1	6.762116909E0	6.821482561E0
4.254134510E-1	8.446664214E-1	5.694918036E-1	6.795616150E0	6.871548671E0
4.266092850E-1	9.236295223E-1	6.340979934E-1	6.805187702E0	6.896792836E0
4.278051180E-1	9.284151793E-1	6.412764788E-1	6.630511761E0	6.725836489E0
4.290009510E-1	8.781659007E-1	6.173482537E-1	6.290730953E0	6.381660453E0
4.301967850E-1	8.087740541E-1	5.910272002E-1	5.862415314E0	5.947381099E0
4.313926180E-1	7.465606928E-1	5.527420044E-1	5.431707382E0	5.510564552E0
4.325884510E-1	6.915257573E-1	5.264210105E-1	5.079962254E0	5.153769829E0
4.337842850E-1	6.580262184E-1	5.072783828E-1	4.835894585E0	4.906751094E0
4.349800660E-1	6.556333899E-1	4.737788737E-1	4.701896667E0	4.770969905E0
4.361758990E-1	6.771687865E-1	4.331009090E-1	4.675575256E0	4.744168836E0
4.373717320E-1	7.130611539E-1	3.828516304E-1	4.733003139E0	4.801702854E0
4.385675660E-1	7.704889178E-1	3.517449200E-1	4.845465660E0	4.918934348E0
4.397633990E-1	8.398807645E-1	3.469592929E-1	4.972285271E0	5.054641556E0
4.409592320E-1	9.020941257E-1	3.493520916E-1	5.075176716E0	5.166550047E0
4.421550660E-1	9.523434043E-1	3.565305769E-1	5.127819061E0	5.227676380E0
4.433508990E-1	1.000199914E0	3.732803464E-1	5.120640278E0	5.230745161E0
4.445467320E-1	1.026520967E0	3.948157430E-1	5.044070244E0	5.162583597E0
4.457425660E-1	1.026520967E0	4.139583111E-1	4.910071850E0	5.033280476E0
4.469383990E-1	1.016949654E0	4.259224236E-1	4.740181446E0	4.866715181E0
4.481342320E-1	1.014556766E0	4.354937077E-1	4.575077057E0	4.706411614E0
4.493300140E-1	1.021735311E0	4.522434771E-1	4.441078663E0	4.579481073E0
4.505258470E-1	1.014556766E0	4.737788737E-1	4.347758770E0	4.489632298E0
4.517216800E-1	1.021735311E0	5.072783828E-1	4.323830605E0	4.471776548E0
4.529175140E-1	1.052842021E0	5.407779217E-1	4.362115860E0	4.519842017E0
4.541133470E-1	1.103091240E0	5.694918036E-1	4.479363918E0	4.648207430E0
4.553091800E-1	1.103091240E0	5.670989752E-1	4.536791801E0	4.703285169E0
4.565050140E-1	1.016949654E0	5.431707501E-1	4.426722050E0	4.574394951E0
4.577008470E-1	8.949156404E-1	5.216353536E-1	4.235296249E0	4.360127494E0
4.588966800E-1	7.752745152E-1	4.929214716E-1	4.046263218E0	4.149249110E0
4.600925140E-1	6.891329288E-1	4.618147612E-1	3.921836376E0	4.008612931E0
4.612883470E-1	6.149554253E-1	4.259224236E-1	3.830909014E0	3.903260683E0
4.624841800E-1	5.431707501E-1	3.637090325E-1	3.737588882E0	3.794323310E0
4.636800140E-1	4.737788737E-1	2.943171859E-1	3.665804386E0	3.707992830E0
4.648757950E-1	4.307080805E-1	2.321037948E-1	3.646661758E0	3.679337386E0
4.660716280E-1	5.048855543E-1	1.938186288E-1	3.842873096E0	3.880740744E0
4.672674620E-1	1.330409408E0	1.698904037E-1	4.718646049E0	4.905555267E0
4.684632950E-1	2.244467735E0	1.220339537E-1	5.845665932E0	6.262933649E0
4.696591280E-1	2.187039852E0	7.178468257E-2	6.427121639E0	6.789417421E0
4.708549620E-1	1.770688772E0	-1.196411345E-2	6.597012043E0	6.830523389E0
4.720507950E-1	1.730010748E0	-3.828516230E-2	6.862615108E0	7.077421075E0
4.732466280E-1	2.081755638E0	-8.853443712E-2	7.357929707E0	7.647265815E0
4.744424620E-1	2.316252232E0	-2.105683982E-1	7.403393269E0	7.760128565E0
4.756382950E-1	2.203789711E0	-1.818545163E-1	6.881757736E0	7.228301993E0
4.768340760E-1	1.875972986E0	-2.392822690E-2	6.324230194E0	6.596645720E0
4.780299100E-1	1.488335729E0	1.507478207E-1	5.864808083E0	6.052589693E0
4.792257430E-1	1.122233868E0	3.110669553E-1	5.503491879E0	5.625352821E0
4.804215760E-1	7.369893789E-1	4.378865361E-1	5.063212872E0	5.135272393E0
4.816174100E-1	2.847459018E-1	5.551348329E-1	4.445864677E0	4.489428431E0
4.828132430E-1	-1.004985496E-1	7.130611539E-1	3.871587038E0	3.937987095E0
4.840090760E-1	-3.780659735E-1	8.829515576E-1	3.402593851E0	3.535559680E0
4.852049100E-1	-5.742774606E-1	1.014556766E0	3.029313564E0	3.245899059E0
4.864007430E-1	-6.580262184E-1	1.091127157E0	2.837887764E0	3.110814031E0
4.875965760E-1	-6.963114142E-1	1.091127157E0	2.758924484E0	3.047469831E0
4.887924100E-1	-7.561319470E-1	9.978070259E-1	2.663211584E0	2.942796344E0
4.899882430E-1	-8.327022791E-1	8.183453679E-1	2.512463808E0	2.770479492E0
4.911840760E-1	-8.997012973E-1	6.077769399E-1	2.392822742E0	2.627633138E0
4.923798570E-1	-8.925228715E-1	3.900300860E-1	2.407179594E0	2.596773795E0
4.935756910E-1	-8.183453679E-1	1.746760458E-1	2.538784742E0	2.673130904E0
4.947715240E-1	-7.322037220E-1	-2.392822690E-2	2.754138947E0	2.849908102E0
4.959673570E-1	-6.340979934E-1	-1.962114573E-1	3.010170937E0	3.082484107E0
4.971631910E-1	-5.288137794E-1	-3.421736360E-1	3.230310678E0	3.291144769E0
4.983590240E-1	-3.900300860E-1	-4.546363056E-1	3.409772158E0	3.461988418E0
4.995548570E-1	-2.177468538E-1	-5.192425251E-1	3.562912941E0	3.607128375E0
5.007506910E-1	-6.221338734E-2	-5.647061467E-1	3.665804386E0	3.709566731E0
5.019465240E-1	7.417750359E-2	-5.982056856E-1	3.694518089E0	3.743369639E0
5.031423570E-1	1.818545163E-1	-6.364908218E-1	3.572484255E0	3.633295389E0
5.043381910E-1	2.847459018E-1	-6.771687865E-1	3.345165968E0	3.424875640E0
5.055339720E-1	4.474578202E-1	-6.723831892E-1	3.158525944E0	3.260153952E0
5.067298050E-1	6.460621357E-1	-6.388836503E-1	3.046063185E0	3.178689907E0
5.079256390E-1	8.470591903E-1	-6.005984545E-1	2.969492912E0	3.145809265E0
5.091214720E-1	1.031306505E0	-5.599204898E-1	2.895315409E0	3.124092729E0
5.103173050E-1	1.203589797E0	-5.168496966E-1	2.880958557E0	3.164756581E0
5.115131390E-1	1.387837172E0	-4.546363056E-1	2.950350285E0	3.292013516E0
5.127089720E-1	1.567298889E0	-3.756731451E-1	3.089133978E0	3.484294025E0
5.139048050E-1	1.730010748E0	-3.110669553E-1	3.244667530E0	3.690198805E0
5.151006390E-1	1.866401672E0	-2.895315289E-1	3.347558975E0	3.843622614E0
5.162964720E-1	1.950150490E0	-3.062812984E-1	3.381058455E0	3.915156630E0
5.174923050E-1	2.009970903E0	-3.373879790E-1	3.378665686E0	3.945781988E0
5.186880870E-1	2.093719721E0	-3.493520916E-1	3.419343472E0	4.024626558E0
5.198839200E-1	2.220539331E0	-3.373879790E-1	3.553341627E0	4.203672477E0
5.210797530E-1	2.344966173E0	-3.086741269E-1	3.711267948E0	4.400869897E0
5.222755870E-1	2.431107759E0	-2.895315289E-1	3.830909014E0	4.546424674E0
5.234714200E-1	2.507678032E0	-2.727817893E-1	3.952943087E0	4.689202284E0
5.246672530E-1	2.598605394E0	-2.488535494E-1	4.110869408E0	4.869694587E0
5.258630870E-1	2.691925526E0	-2.129612118E-1	4.285545349E0	5.065344455E0
5.270589200E-1	2.778067112E0	-1.579262912E-1	4.474578381E0	5.269198163E0
5.282547530E-1	2.876172781E0	-8.853443712E-2	4.680361271E0	5.494177813E0
5.294505870E-1	2.967100143E0	-2.392822690E-2	4.867001057E0	5.700171498E0
5.306464200E-1	3.038884640E0	3.110669367E-2	5.039284706E0	5.884741101E0
5.318422010E-1	3.115455151E0	1.100698411E-1	5.223531723E0	6.083046920E0
5.330380870E-1	3.153740168E0	1.627119333E-1	5.321637630E0	6.188083652E0
5.342338680E-1	3.160918713E0	1.842473447E-1	5.343173027E0	6.210865655E0
5.354297010E-1	3.141776085E0	1.818545163E-1	5.309673309E0	6.172232877E0
5.366255350E-1	3.062813044E0	9.332008660E-2	5.146961689E0	5.990054007E0
5.378213680E-1	3.000599623E0	-1.435693540E-2	5.022534847E0	5.850611977E0
5.390172010E-1	2.981456995E0	-8.614161611E-2	5.053641319E0	5.868202176E0
5.402130350E-1	2.924029350E0	-2.057827413E-1	5.106283665E0	5.887820228E0
5.414088680E-1	2.780459881E0	-4.259224236E-1	5.051248550E0	5.781650195E0
5.426047010E-1	2.608176708E0	-7.513462901E-1	4.871787071E0	5.576864375E0
5.438005350E-1	2.493321180E0	-1.136590719E0	4.692325115E0	5.433820383E0
5.449963680E-1	2.476571321E0	-1.502692580E0	4.689932346E0	5.512436477E0
5.461922010E-1	2.543570518E0	-1.820937991E0	4.926821709E0	5.836020759E0
5.473879820E-1	2.656033039E0	-2.079362869E0	5.364708424E0	6.337062247E0
5.485838160E-1	2.778067112E0	-2.287538528E0	5.979663849E0	6.979030674E0
5.497796490E-1	2.897708178E0	-2.459821701E0	6.709474564E0	7.711321832E0
5.509754820E-1	2.995813847E0	-2.608176708E0	7.458428383E0	8.450185814E0
5.521713160E-1	3.058027267E0	-2.744567633E0	8.161917686E0	9.137892677E0
5.533671490E-1	3.067598581E0	-2.859423161E0	8.781659126E0	9.731597961E0
5.545629820E-1	3.026920557E0	-2.938386202E0	9.288937569E0	1.020199601E1
5.557588160E-1	2.952743053E0	-2.993421078E0	9.652647018E0	1.052866828E1
5.569546490E-1	2.835494757E0	-3.046063185E0	9.851250648E0	1.069418865E1
5.581504820E-1	2.677568436E0	-3.072384357E0	9.911071777E0	1.071626157E1
5.593463160E-1	2.495713949E0	-3.067598581E0	9.887143135E0	1.064867825E1
5.605420970E-1	2.297109842E0	-3.041277647E0	9.791430473E0	1.050705449E1
5.617379300E-1	2.096112728E0	-2.995813847E0	9.659825325E0	1.032864050E1
5.629337640E-1	1.909472466E0	-2.933600664E0	9.523433685E0	1.014632382E1
5.641295970E-1	1.730010748E0	-2.861815929E0	9.394221306E0	9.971675965E0
5.653254300E-1	1.564906001E0	-2.785245657E0	9.286544800E0	9.820714764E0
5.665212640E-1	1.421336651E0	-2.701496840E0	9.224330902E0	9.716304011E0
5.677170970E-1	1.292124271E0	-2.617748022E0	9.212367058E0	9.663844817E0
5.689129300E-1	1.170090318E0	-2.526820660E0	9.233902931E0	9.644630493E0
5.701087640E-1	1.050449133E0	-2.445464849E0	9.269794464E0	9.644316001E0
5.713045970E-1	9.379864931E-1	-2.385644197E0	9.303294182E0	9.649994794E0
5.725004300E-1	8.398807645E-1	-2.328216314E0	9.339186668E0	9.661593995E0
5.736962640E-1	7.633104324E-1	-2.280359983E0	9.370293617E0	9.673938544E0
5.748920450E-1	6.987041831E-1	-2.232503414E0	9.399007797E0	9.685742439E0
5.760878780E-1	6.364908218E-1	-2.175075769E0	9.408578873E0	9.677676972E0
5.772837120E-1	5.910272002E-1	-2.117648125E0	9.394221306E0	9.648064089E0
5.784795450E-1	5.575276613E-1	-2.041077614E0	9.358329773E0	9.594538606E0
5.796753780E-1	5.192425251E-1	-1.950150490E0	9.315258980E0	9.531356126E0
5.808712120E-1	4.977070987E-1	-1.830509305E0	9.279366493E0	9.471278646E0
5.820670450E-1	5.024927258E-1	-1.667797327E0	9.255437851E0	9.417917853E0
5.832628780E-1	5.455635786E-1	-1.469193101E0	9.236295700E0	9.368315016E0
5.844587120E-1	6.173482537E-1	-1.241874933E0	9.229117393E0	9.332737009E0
5.856545450E-1	6.843472719E-1	-9.858429432E-1	9.243474007E0	9.321053010E0
5.868503780E-1	7.417750359E-1	-7.369893789E-1	9.253045082E0	9.311940015E0
5.880461600E-1	8.231309652E-1	-5.120640397E-1	9.253045082E0	9.303687304E0
5.892419930E-1	9.451649189E-1	-3.086741269E-1	9.250652313E0	9.303933827E0
5.904378260E-1	1.117448211E0	-1.196411327E-1	9.269794464E0	9.337670690E0
5.916336600E-1	1.320838094E0	7.178468257E-2	9.324830055E0	9.418185699E0
5.928294930E-1	1.572084427E0	2.632105052E-1	9.418149948E0	9.552082373E0
5.940253260E-1	1.859223247E0	4.354937077E-1	9.554540634E0	9.743490780E0
5.952211600E-1	2.139183521E0	5.958128572E-1	9.702896118E0	9.953757691E0
5.964169930E-1	2.423929453E0	7.489534616E-1	9.856036186E0	1.017731863E1
5.976128260E-1	2.739781857E0	8.997012973E-1	1.008335495E1	1.048760764E1
5.988086600E-1	3.029313564E0	1.028913736E0	1.038963604E1	1.087105980E1
6.000044930E-1	3.175275564E0	1.100698471E0	1.063131142E1	1.114982935E1
6.012003260E-1	3.211168051E0	1.117448211E0	1.075334454E1	1.127806320E1
6.023961070E-1	3.242274761E0	1.107876897E0	1.079641533E1	1.132706144E1
6.035919410E-1	3.316452265E0	1.103091240E0	1.078445148E1	1.133666881E1
6.047877740E-1	3.428914785E0	1.115055323E0	1.077727318E1	1.136443673E1
6.059836070E-1	3.562912941E0	1.143769264E0	1.077727318E1	1.140842557E1
6.071794410E-1	3.708875179E0	1.210768223E0	1.078923702E1	1.147298350E1
6.083752740E-1	3.847658873E0	1.337587833E0	1.084905815E1	1.158860142E1
6.095711070E-1	3.957728624E0	1.488335729E0	1.094237804E1	1.173091626E1
6.107669410E-1	4.043870449E0	1.639083505E0	1.107159042E1	1.190040325E1
6.119627740E-1	4.094119549E0	1.792224169E0	1.126540947E1	1.211954343E1
6.131586070E-1	4.098905087E0	1.923829436E0	1.150469112E1	1.236365886E1
6.143544410E-1	4.072584152E0	2.026720762E0	1.180618668E1	1.265225603E1
6.155502220E-1	4.019941807E0	2.117648125E0	1.216989613E1	1.299040944E1
6.167460550E-1	3.933800459E0	2.182254314E0	1.257906818E1	1.335926556E1
6.179418890E-1	3.818944931E0	2.218146563E0	1.301456261E1	1.374348407E1
6.191377220E-1	3.687339783E0	2.230110645E0	1.344766331E1	1.412124345E1
6.203335550E-1	3.543770313E0	2.201396942E0	1.386640739E1	1.448039055E1
6.215293890E-1	3.395415306E0	2.115255117E0	1.424925900E1	1.480015308E1
6.227252220E-1	3.244667530E0	1.993221283E0	1.457946873E1	1.506856685E1
6.239210550E-1	3.089133978E0	1.842473388E0	1.488574982E1	1.531414394E1
6.251168890E-1	2.928814888E0	1.658226132E0	1.518485260E1	1.555337324E1
6.263127220E-1	2.768495798E0	1.454836130E0	1.548634815E1	1.579899036E1
6.275085030E-1	2.600998163E0	1.251446247E0	1.579741478E1	1.605894215E1
6.287043370E-1	2.404786825E0	1.048056364E0	1.612523270E1	1.633721370E1
6.299001700E-1	2.187039852E0	8.662018180E-1	1.646740532E1	1.663456903E1
6.310960030E-1	1.950150490E0	7.130611539E-1	1.680718613E1	1.693496527E1
6.322918370E-1	1.677368641E0	5.934200287E-1	1.713739586E1	1.722951101E1
6.334876700E-1	1.366301775E0	5.216353536E-1	1.746042633E1	1.752156875E1
6.346835030E-1	1.033699393E0	4.785645306E-1	1.776192284E1	1.779841176E1
6.358793370E-1	7.034898400E-1	4.307080805E-1	1.800838280E1	1.802726431E1
6.370751700E-1	3.780659735E-1	3.924229145E-1	1.818545151E1	1.819361361E1
6.382710030E-1	6.460621208E-2	3.541377485E-1	1.830509377E1	1.830863308E1
6.394668370E-1	-2.225325108E-1	3.373879790E-1	1.838884163E1	1.839328268E1
6.406626700E-1	-4.881358147E-1	3.373879790E-1	1.842234230E1	1.843189635E1
6.418584510E-1	-7.345965505E-1	3.421736360E-1	1.840559196E1	1.842342342E1
6.430542850E-1	-9.619147182E-1	3.541377485E-1	1.836730576E1	1.839588580E1
6.442501180E-1	-1.158126116E0	3.732803464E-1	1.832423592E1	1.836459137E1
6.454459510E-1	-1.318445325E0	4.115654826E-1	1.828834343E1	1.834042501E1
6.466417850E-1	-1.459621787E0	4.737788737E-1	1.826441574E1	1.832877095E1
6.478376180E-1	-1.586441398E0	5.455635786E-1	1.821416664E1	1.829126301E1
6.490334510E-1	-1.696511269E0	6.197410822E-1	1.813520241E1	1.822492238E1
6.502292850E-1	-1.780260086E0	6.963114142E-1	1.803709793E1	1.813811118E1
6.514251180E-1	-1.837687731E0	7.752745152E-1	1.791027832E1	1.802099377E1
6.526209510E-1	-1.861616015E0	8.566305041E-1	1.774995804E1	1.786786054E1
6.538167850E-1	-1.847259045E0	9.379864931E-1	1.755613899E1	1.767795805E1
6.550125660E-1	-1.816152334E0	1.028913736E0	1.734317780E1	1.746833961E1
6.562083990E-1	-1.770688772E0	1.129412293E0	1.710628891E1	1.723473328E1
6.574042320E-1	-1.701296926E0	1.232303619E0	1.685504341E1	1.698544883E1
6.586000660E-1	-1.610369682E0	1.330409408E0	1.660858154E1	1.673942235E1
6.597958990E-1	-1.514656782E0	1.435693622E0	1.638604927E1	1.651841433E1
6.609917320E-1	-1.426122308E0	1.557727575E0	1.616830254E1	1.630565383E1
6.621875660E-1	-1.337587833E0	1.686939955E0	1.596012688E1	1.610467502E1
6.633833990E-1	-1.244267821E0	1.820937991E0	1.577348709E1	1.592692414E1
6.645792320E-1	-1.141376376E0	1.962114573E0	1.560359669E1	1.576784269E1
6.657750660E-1	-1.028913736E0	2.096112728E0	1.545763397E1	1.563300355E1
6.669708990E-1	-9.020941257E-1	2.184647083E0	1.532842159E1	1.550957656E1
6.681666800E-1	-7.609176040E-1	2.254039049E0	1.519920921E1	1.538426626E1
6.693625140E-1	-6.221339107E-1	2.352144718E0	1.508435440E1	1.527931226E1
6.705583470E-1	-4.977070987E-1	2.464607239E0	1.499342632E1	1.520279034E1
6.717541800E-1	-3.804588020E-1	2.572284460E0	1.490967751E1	1.513472430E1
6.729500140E-1	-2.536391914E-1	2.679961443E0	1.484028625E1	1.508246075E1
6.741458470E-1	-1.339980662E-1	2.770888567E0	1.478046513E1	1.503854808E1
6.753416800E-1	-3.828516230E-2	2.859423161E0	1.472303772E1	1.499818677E1
6.765375140E-1	5.264209956E-2	2.962314367E0	1.465603828E1	1.495250935E1
6.777333470E-1	1.387837082E-1	3.062813044E0	1.457228947E1	1.489132986E1
6.789291800E-1	2.129612118E-1	3.156133175E0	1.450289822E1	1.484387368E1
6.801250140E-1	2.847459018E-1	3.261417150E0	1.444307709E1	1.480946987E1
6.813208470E-1	3.613162339E-1	3.366701365E0	1.439522076E1	1.478809008E1
6.825166280E-1	4.570291340E-1	3.462414265E0	1.439522076E1	1.481281772E1
6.837124620E-1	5.670989752E-1	3.553341627E0	1.440000629E1	1.484277667E1
6.849082950E-1	6.843472719E-1	3.637090445E0	1.437607861E1	1.484481034E1
6.861041280E-1	8.039883971E-1	3.730410576E0	1.434497166E1	1.484387322E1
6.872999620E-1	9.308080077E-1	3.806980848E0	1.431625748E1	1.484300289E1
6.884957950E-1	1.071984529E0	3.857230186E0	1.431625748E1	1.486548363E1
6.896916280E-1	1.217946768E0	3.912265062E0	1.432104397E1	1.489568772E1
6.908874620E-1	1.351944804E0	3.972085476E0	1.430190086E1	1.490468336E1
6.920832950E-1	1.476371527E0	4.017549038E0	1.426600838E1	1.489427300E1
6.932791280E-1	1.588834286E0	4.039084435E0	1.422054482E1	1.486817044E1
6.944749100E-1	1.689332843E0	4.043870449E0	1.416790295E1	1.483024638E1
6.956707430E-1	1.777867198E0	4.022335052E0	1.411047554E1	1.477990227E1
6.968665760E-1	1.842473388E0	3.988835335E0	1.404586887E1	1.471706316E1
6.980624100E-1	1.897508383E0	3.950550079E0	1.397169113E1	1.464293472E1
6.992582430E-1	1.945364833E0	3.905086517E0	1.388794231E1	1.455709747E1
7.004540760E-1	1.993221283E0	3.845266104E0	1.378505135E1	1.444945131E1
7.016499100E-1	2.041077614E0	3.785445452E0	1.367737389E1	1.433757830E1
7.028457430E-1	2.086541414E0	3.723232031E0	1.357209015E1	1.422735896E1
7.040415760E-1	2.100898266E0	3.665804386E0	1.348116302E1	1.412776174E1
7.052374100E-1	2.096112728E0	3.615555048E0	1.339980698E1	1.403640815E1
7.064332430E-1	2.103291035E0	3.574877024E0	1.331605816E1	1.394707797E1
7.076290240E-1	2.091326952E0	3.541377544E0	1.323470211E1	1.385901668E1
7.088248570E-1	2.055434704E0	3.510270834E0	1.313659668E1	1.375198115E1
7.100206910E-1	2.000399828E0	3.486342669E0	1.303131199E1	1.363712861E1
7.112165240E-1	1.938186288E0	3.455235958E0	1.292124271E1	1.351494487E1
7.124123570E-1	1.864008784E0	3.426522017E0	1.279202938E1	1.337354095E1
7.136081910E-1	1.768295884E0	3.397808075E0	1.264846039E1	1.321573003E1
7.148040240E-1	1.677368641E0	3.357130051E0	1.251446247E1	1.306505487E1
7.159998570E-1	1.607976794E0	3.333201885E0	1.238764286E1	1.292863178E1
7.171956910E-1	1.555334687E0	3.309273720E0	1.226321602E1	1.279675059E1
7.183915240E-1	1.507478237E0	3.273381472E0	1.214357471E1	1.266704084E1
7.195873570E-1	1.473978758E0	3.235096216E0	1.202154064E1	1.253618364E1
7.207831390E-1	1.452443361E0	3.196810961E0	1.191864967E1	1.242511175E1
7.219789720E-1	1.442872047E0	3.153740168E0	1.182772255E1	1.232570394E1
7.231748050E-1	1.452443361E0	3.101098061E0	1.173679543E1	1.222615098E1
7.243706390E-1	1.476371527E0	3.043670416E0	1.164347458E1	1.212493723E1
7.255664720E-1	1.493121386E0	2.979064226E0	1.153819084E1	1.200974950E1
7.267623050E-1	1.500299811E0	2.921636343E0	1.136112213E1	1.182632464E1
7.279581390E-1	1.502692580E0	2.878565550E0	1.119601727E1	1.165740225E1
7.291539720E-1	1.519442320E0	2.835494757E0	1.112183952E1	1.157773941E1
7.303498050E-1	1.543370605E0	2.775674343E0	1.107876873E1	1.152499360E1
7.315456390E-1	1.545763373E0	2.730210543E0	1.104766178E1	1.148452284E1
7.327414200E-1	1.517049551E0	2.703889608E0	1.102851963E1	1.145603350E1
7.339372530E-1	1.464407444E0	2.677568436E0	1.102851963E1	1.144299380E1
7.351330870E-1	1.373480201E0	2.651247501E0	1.103330517E1	1.143019615E1
7.363289200E-1	1.258624673E0	2.620140791E0	1.101894855E1	1.139589843E1
7.375247530E-1	1.146162033E0	2.596212626E0	1.099741268E1	1.135768872E1
7.387205870E-1	1.038485050E0	2.577069998E0	1.095673466E1	1.130352933E1
7.399164200E-1	9.475577474E-1	2.562713146E0	1.091844940E1	1.125512780E1
7.411122530E-1	8.566305041E-1	2.550748825E0	1.089452171E1	1.122188659E1
7.423080870E-1	7.633104324E-1	2.524427891E0	1.082991505E1	1.114640924E1
7.435039200E-1	7.034898400E-1	2.486142635E0	1.075813103E1	1.106404927E1
7.446997530E-1	6.723831892E-1	2.450250387E0	1.070788097E1	1.100520518E1
7.458955350E-1	6.221339107E-1	2.411965132E0	1.064806080E1	1.093553040E1
7.470913680E-1	5.551348329E-1	2.361716032E0	1.056909752E1	1.084397066E1
7.482872010E-1	4.833501875E-1	2.311466694E0	1.046381378E1	1.072697089E1
7.494830350E-1	4.043870270E-1	2.261217356E0	1.035135078E1	1.060316443E1
7.506788680E-1	3.278166950E-1	2.201396942E0	1.025803089E1	1.049670472E1
7.518747010E-1	2.488535494E-1	2.124826431E0	1.016231823E1	1.038506270E1
7.530705350E-1	1.627119333E-1	2.060220242E0	1.006421185E1	1.027420764E1
7.542663680E-1	7.896314561E-2	2.007578135E0	9.958928108E0	1.015956959E1
7.554622010E-1	7.178467698E-3	1.952543259E0	9.848857880E0	1.004054173E1
7.566580350E-1	-6.221338734E-2	1.909472466E0	9.750752449E0	9.936152622E0
7.578538680E-1	-1.483550072E-1	1.883151412E0	9.633503914E0	9.816958088E0
7.590496490E-1	-2.416750938E-1	1.852044702E0	9.487542152E0	9.669639731E0
7.602454820E-1	-3.206382394E-1	1.832902193E0	9.341579437E0	9.525095575E0
7.614413160E-1	-3.972085714E-1	1.823330879E0	9.195617676E0	9.383053585E0
7.626371490E-1	-3.924229145E-1	1.835294962E0	9.145368576E0	9.335955748E0
7.638329820E-1	-2.703889608E-1	1.866401672E0	9.375079155E0	9.562880035E0
7.650288160E-1	-2.584248483E-1	1.926222205E0	9.413364410E0	9.611896010E0
7.662246490E-1	-4.689932466E-1	2.021935225E0	8.982656479E0	9.219343476E0
7.674204820E-1	-7.609176040E-1	2.117648125E0	8.353343964E0	8.651114642E0
7.686163160E-1	-1.028913736E0	2.175075769E0	7.652246952E0	8.021627110E0
7.698121490E-1	-1.215553880E0	2.175075769E0	7.063612461E0	7.490203391E0
7.710079820E-1	-1.328016520E0	2.136790514E0	6.642475605E0	7.102955986E0
7.722037640E-1	-1.380658627E0	2.096112728E0	6.374479294E0	6.850831561E0
7.733995970E-1	-1.392622828E0	2.067398787E0	6.218945980E0	6.699912327E0
7.745954300E-1	-1.409372568E0	2.053041935E0	6.168696880E0	6.652378028E0
7.757912640E-1	-1.438086390E0	2.069791555E0	6.204588890E0	6.696943545E0
7.769870970E-1	-1.485942841E0	2.110469580E0	6.276373863E0	6.786381720E0
7.781829300E-1	-1.557727575E0	2.165504456E0	6.345765591E0	6.883652060E0
7.793787640E-1	-1.639083505E0	2.222932339E0	6.348158360E0	6.922942833E0
7.805745970E-1	-1.718046665E0	2.289931297E0	6.257231236E0	6.881018269E0
7.817704300E-1	-1.777867198E0	2.383251429E0	6.068198204E0	6.757494254E0
7.829662640E-1	-1.794616938E0	2.488535643E0	5.795416355E0	6.557462186E0
7.841620450E-1	-1.789831281E0	2.584248543E0	5.458028316E0	6.298564094E0
7.853578780E-1	-1.768295884E0	2.682354212E0	5.079962254E0	6.010649794E0
7.865537120E-1	-1.739582062E0	2.775674343E0	4.689932346E0	5.720662481E0
7.877495450E-1	-1.703689694E0	2.857030153E0	4.309473515E0	5.443963799E0
7.889453780E-1	-1.658226132E0	2.916850805E0	3.986442566E0	5.210514068E0
7.901412120E-1	-1.619940877E0	2.955136061E0	3.749552965E0	5.041446719E0
7.913370450E-1	-1.586441398E0	2.991028309E0	3.572484255E0	4.921960016E0
7.925328780E-1	-1.557727575E0	3.007778168E0	3.440878868E0	4.828342582E0
7.937287120E-1	-1.540977836E0	2.993421078E0	3.369094372E0	4.762980089E0
7.949245450E-1	-1.533799291E0	2.967100143E0	3.349951744E0	4.730581382E0
7.961203260E-1	-1.526620865E0	2.935993433E0	3.366701365E0	4.720731594E0
7.973161600E-1	-1.524227977E0	2.890529871E0	3.404986620E0	4.719360946E0
7.985119930E-1	-1.521835208E0	2.845066071E0	3.462414265E0	4.732726052E0
7.997078260E-1	-1.533799291E0	2.813959360E0	3.529413462E0	4.767354290E0
8.009036600E-1	-1.576870084E0	2.787638426E0	3.605983734E0	4.822920894E0
8.020994930E-1	-1.612762451E0	2.780459881E0	3.682554007E0	4.888063408E0
8.032953260E-1	-1.648654819E0	2.799602509E0	3.763910055E0	4.972208344E0
8.044911600E-1	-1.706082582E0	2.833101988E0	3.854837179E0	5.079070223E0
8.056869930E-1	-1.763510346E0	2.868994236E0	3.957728624E0	5.196605867E0
8.068828260E-1	-1.816152334E0	2.907279491E0	4.070191383E0	5.321385274E0
8.080786600E-1	-1.864008784E0	2.947957516E0	4.225724697E0	5.479209019E0
8.092744410E-1	-1.811366796E0	3.017349243E0	4.539184570E0	5.743661088E0
8.104702740E-1	-1.617548108E0	3.151347399E0	5.233103275E0	6.319242217E0
8.116661070E-1	-1.576870084E0	3.304488182E0	5.654240131E0	6.736215026E0
8.128619410E-1	-1.785045743E0	3.440878868E0	5.467599869E0	6.702289461E0
8.140577740E-1	-2.057827473E0	3.527020693E0	5.111069202E0	6.541984200E0
8.152536070E-1	-2.309073925E0	3.505485058E0	4.728217602E0	6.322680569E0
8.164494410E-1	-2.478964329E0	3.381058455E0	4.462614059E0	6.123050274E0
8.176452740E-1	-2.531606436E0	3.230310678E0	4.378865242E0	6.001533057E0
8.188411070E-1	-2.474178553E0	3.108276606E0	4.486542225E0	5.992662522E0
8.200369410E-1	-2.378465652E0	2.998206854E0	4.721039295E0	6.077380622E0
8.212327220E-1	-2.299502611E0	2.890529871E0	5.012963295E0	6.226770928E0
8.224285550E-1	-2.249253273E0	2.770888567E0	5.307280540E0	6.395638394E0
8.236243890E-1	-2.239681959E0	2.651247501E0	5.594419479E0	6.583526251E0
8.248202220E-1	-2.256431818E0	2.536391973E0	5.852844238E0	6.766132904E0
8.260160550E-1	-2.280359983E0	2.423929453E0	6.051448345E0	6.906193070E0
8.272118890E-1	-2.292324066E0	2.325823545E0	6.195017815E0	7.003031523E0
8.284077220E-1	-2.251646042E0	2.261217356E0	6.288337708E0	7.051681002E0
8.296035550E-1	-2.170290232E0	2.234896421E0	6.319444656E0	7.045587447E0
8.307993890E-1	-2.081755638E0	2.246860504E0	6.273981094E0	6.981756758E0
8.319952220E-1	-1.981257200E0	2.294716835E0	6.154339790E0	6.860539607E0
8.331910550E-1	-1.875972986E0	2.349751949E0	5.986842155E0	6.699469222E0
8.343868890E-1	-1.775474429E0	2.411965132E0	5.781059742E0	6.510801562E0
8.355826700E-1	-1.677368641E0	2.464607239E0	5.527420521E0	6.280145859E0
8.367785030E-1	-1.584048629E0	2.502892494E0	5.290530682E0	6.063282592E0
8.379743370E-1	-1.478764415E0	2.533999205E0	5.137390137E0	5.916136711E0
8.391701700E-1	-1.373480201E0	2.567498684E0	5.060820103E0	5.838698268E0
8.403660030E-1	-1.275374413E0	2.620140791E0	5.041677475E0	5.823249043E0
8.415618370E-1	-1.203589797E0	2.694318295E0	5.041677475E0	5.841788359E0
8.427576700E-1	-1.148554921E0	2.768495798E0	5.041677475E0	5.865343907E0
8.439535030E-1	-1.107876897E0	2.845066071E0	5.027320385E0	5.881814551E0
8.451493370E-1	-1.088734269E0	2.928814888E0	4.965106964E0	5.866479875E0
8.463451180E-1	-1.081555843E0	3.012563705E0	4.838287354E0	5.801235010E0
8.475409510E-1	-1.086341500E0	3.079562664E0	4.661218643E0	5.691291883E0
8.487367850E-1	-1.093519926E0	3.136990547E0	4.433900356E0	5.540394200E0
8.499326180E-1	-1.098305583E0	3.187239647E0	4.158725739E0	5.353482183E0
8.511284510E-1	-1.105484009E0	3.244667530E0	3.869194269E0	5.169199799E0
8.523242850E-1	-1.095912814E0	3.299702406E0	3.570091486E0	4.983433965E0
8.535201180E-1	-1.064806104E0	3.335594654E0	3.290131092E0	4.804681710E0
8.547159510E-1	-1.043270707E0	3.373879910E0	3.034099102E0	4.655881954E0
8.559117850E-1	-1.019342422E0	3.409772158E0	2.813959360E0	4.536956295E0
8.571076180E-1	-9.858429432E-1	3.440878868E0	2.639283419E0	4.447173333E0
8.583034510E-1	-9.547362328E-1	3.479164124E0	2.490928411E0	4.384156546E0
8.594992320E-1	-9.260223508E-1	3.505485058E0	2.368894339E0	4.331004880E0
8.606950660E-1	-9.044869542E-1	3.527020693E0	2.275574446E0	4.293740872E0
8.618908990E-1	-8.901300430E-1	3.543770313E0	2.201396942E0	4.265769335E0
8.630867320E-1	-8.829515576E-1	3.558127165E0	2.136790514E0	4.243317815E0
8.642825660E-1	-8.757730722E-1	3.567698479E0	2.084148407E0	4.223638892E0
8.654783990E-1	-8.662018180E-1	3.570091486E0	2.057827473E0	4.210761536E0
8.666742320E-1	-8.614161611E-1	3.567698479E0	2.057827473E0	4.207750485E0
8.678700660E-1	-8.566305041E-1	3.570091486E0	2.074577332E0	4.217017921E0
8.690658990E-1	-8.614161611E-1	3.572484255E0	2.115255117E0	4.240163413E0
8.702616800E-1	-8.638089895E-1	3.567698479E0	2.194218397E0	4.276591257E0
8.714575140E-1	-8.685946465E-1	3.562912941E0	2.306680918E0	4.332387580E0
8.726533470E-1	-8.733802438E-1	3.550948858E0	2.440679073E0	4.396469627E0
8.738491800E-1	-8.781659007E-1	3.531806231E0	2.591426849E0	4.467697809E0
8.750450140E-1	-8.973084688E-1	3.507878065E0	2.763710260E0	4.555048343E0
8.762408470E-1	-9.140582681E-1	3.483949661E0	2.940778971E0	4.649902011E0
8.774366800E-1	-9.379864931E-1	3.450450182E0	3.129812002E0	4.751962572E0
8.786325140E-1	-9.834501147E-1	3.412165165E0	3.326023579E0	4.865437091E0
8.798283470E-1	-1.057627559E0	3.373879910E0	3.527020693E0	4.994148242E0
8.810241800E-1	-1.146162033E0	3.326023579E0	3.732803345E0	5.129321696E0
8.822200140E-1	-1.239482164E0	3.273381472E0	3.936193228E0	5.267348424E0
8.834157950E-1	-1.335195065E0	3.215953588E0	4.137190342E0	5.407536155E0
8.846116280E-1	-1.430907965E0	3.151347399E0	4.357329845E0	5.564603437E0
8.858074620E-1	-1.531406522E0	3.091526747E0	4.591826439E0	5.743484448E0
8.870032950E-1	-1.639083505E0	3.029313564E0	4.819144726E0	5.923469532E0
8.881991280E-1	-1.744367719E0	2.959921598E0	5.041677475E0	6.101021748E0
8.893949620E-1	-1.856830359E0	2.902493954E0	5.273781300E0	6.299607871E0
8.905907950E-1	-1.976471543E0	2.857030153E0	5.517848969E0	6.520407832E0
8.917866280E-1	-2.088934183E0	2.811566591E0	5.771488190E0	6.751194609E0
8.929824620E-1	-2.213361025E0	2.778067112E0	6.005984783E0	6.977712886E0
8.941782950E-1	-2.337787628E0	2.754138947E0	6.202196121E0	7.177587969E0
8.953741280E-1	-2.447857618E0	2.739781857E0	6.364908218E0	7.349181463E0
8.965699100E-1	-2.553141832E0	2.723032236E0	6.503692150E0	7.498763189E0
8.977657430E-1	-2.646461725E0	2.691925526E0	6.625725746E0	7.625645177E0
8.989615760E-1	-2.723032236E0	2.653640270E0	6.731009960E0	7.730666616E0
9.001574100E-1	-2.792423964E0	2.620140791E0	6.826723099E0	7.827318674E0
9.013532430E-1	-2.825923443E0	2.591426849E0	6.917650223E0	7.909185864E0
9.025490760E-1	-2.830709219E0	2.555534601E0	7.008577347E0	7.978961600E0
9.037449100E-1	-2.823530674E0	2.502892494E0	7.116254330E0	8.054680130E0
9.049407430E-1	-2.790031195E0	2.435893536E0	7.219145775E0	8.113810270E0
9.061365760E-1	-2.739781857E0	2.368894339E0	7.312466145E0	8.160283459E0
9.073323570E-1	-2.675175667E0	2.294716835E0	7.417750359E0	8.212509396E0
9.085281910E-1	-2.589034081E0	2.208575249E0	7.534998417E0	8.267835463E0
9.097240240E-1	-2.486142635E0	2.115255117E0	7.645068169E0	8.312777918E0
9.109198570E-1	-2.385644197E0	2.021935225E0	7.769495010E0	8.375235698E0
9.121156910E-1	-2.282752752E0	1.923829436E0	7.910671711E0	8.455223637E0
9.133115240E-1	-2.184647083E0	1.835294962E0	8.070990562E0	8.560483581E0
9.145073570E-1	-2.074577332E0	1.770688772E0	8.267202377E0	8.705506590E0
9.157031910E-1	-1.947757602E0	1.706082582E0	8.475378036E0	8.862082730E0
9.168990240E-1	-1.832902193E0	1.643869162E0	8.688339233E0	9.030452641E0
9.180948570E-1	-1.727617979E0	1.576870084E0	8.908478737E0	9.210438456E0
9.192906910E-1	-1.607976794E0	1.502692580E0	9.145368576E0	9.406457397E0
9.204864720E-1	-1.488335729E0	1.438086390E0	9.401400566E0	9.626503431E0
9.216823050E-1	-1.354337573E0	1.378265858E0	9.659825325E0	9.851196493E0
9.228781390E-1	-1.210768223E0	1.316052437E0	9.932606697E0	1.009230546E1
9.240739720E-1	-1.069591761E0	1.232303619E0	1.020778179E1	1.033737916E1
9.252698050E-1	-9.236295223E-1	1.141376376E0	1.049013424E1	1.059239104E1
9.264656390E-1	-7.657032609E-1	1.055234790E0	1.078923702E1	1.086772550E1
9.276614720E-1	-6.005984545E-1	9.690931439E-1	1.110269737E1	1.116108189E1
9.288573050E-1	-4.450650215E-1	8.781659007E-1	1.142333508E1	1.146568107E1
9.300531390E-1	-2.967100143E-1	7.824530005E-1	1.175833035E1	1.178807033E1
9.312489720E-1	-1.459621787E-1	7.010970116E-1	1.210289669E1	1.212406492E1
9.324448050E-1	-1.196411345E-2	6.388836503E-1	1.244507027E1	1.246146418E1
9.336405870E-1	1.196411327E-1	5.838487148E-1	1.278245831E1	1.279634454E1
9.348364200E-1	2.632105052E-1	5.407779217E-1	1.312463188E1	1.313840487E1
9.360322530E-1	3.996013701E-1	5.096712112E-1	1.347398472E1	1.348954077E1
9.372280870E-1	5.359922647E-1	4.713860750E-1	1.381855106E1	1.383697388E1
9.384239200E-1	6.604190469E-1	4.259224236E-1	1.414397430E1	1.416578880E1
9.396197530E-1	7.585247755E-1	3.900300860E-1	1.447179127E1	1.449690401E1
9.408155870E-1	8.327022791E-1	3.493520916E-1	1.482114315E1	1.484862702E1
9.420114200E-1	8.733802438E-1	3.086741269E-1	1.518245983E1	1.521069227E1
9.432072530E-1	8.733802438E-1	2.656033039E-1	1.555813313E1	1.558489155E1
9.444030350E-1	8.470591903E-1	2.009970993E-1	1.595055580E1	1.597429621E1
9.455988680E-1	8.039883971E-1	1.387837082E-1	1.633819389E1	1.635855244E1
9.467947010E-1	7.393822074E-1	8.374879509E-2	1.672104454E1	1.673759333E1
9.479905350E-1	6.532405615E-1	1.914258115E-2	1.711585999E1	1.712833187E1
9.491863680E-1	5.599204898E-1	-3.828516230E-2	1.751785469E1	1.752684255E1
9.503822010E-1	4.713860750E-1	-8.135596663E-2	1.791267014E1	1.791905620E1
9.515780350E-1	3.852444589E-1	-1.028913707E-1	1.827877235E1	1.828312114E1
9.527738680E-1	3.062812984E-1	-1.076770201E-1	1.860898209E1	1.861181391E1
9.539697010E-1	2.297109663E-1	-1.004985496E-1	1.891287041E1	1.891453235E1
9.551654820E-1	1.507478207E-1	-9.810572863E-2	1.917129517E1	1.917213885E1
9.563613160E-1	6.221338734E-2	-9.810572863E-2	1.936032867E1	1.936067720E1
9.575571490E-1	-3.828516230E-2	-9.332008660E-2	1.950629044E1	1.950655123E1
9.587529820E-1	-1.507478207E-1	-9.332008660E-2	1.960678864E1	1.960759022E1
9.599488160E-1	-2.536391914E-1	-9.092725813E-2	1.965943146E1	1.966127783E1
9.611446490E-1	-3.517449200E-1	-1.124626622E-1	1.968814468E1	1.969160769E1
9.623404820E-1	-4.546363056E-1	-1.555334777E-1	1.970010948E1	1.970596860E1
9.635363160E-1	-5.479564071E-1	-1.986042857E-1	1.967617989E1	1.968481026E1
9.647321490E-1	-6.149554253E-1	-2.440679073E-1	1.961875343E1	1.962990641E1
9.659279820E-1	-6.628118753E-1	-2.919243574E-1	1.953021812E1	1.954364243E1
9.671238160E-1	-7.058826685E-1	-3.397808075E-1	1.941296959E1	1.942877015E1
9.683195970E-1	-7.537391186E-1	-3.684946895E-1	1.926940155E1	1.928765790E1
9.695154300E-1	-7.944171429E-1	-3.732803464E-1	1.910190392E1	1.912205977E1
9.707112640E-1	-8.255237937E-1	-3.565305769E-1	1.890569115E1	1.892706426E1
9.719070970E-1	-8.494520187E-1	-3.158525825E-1	1.871187401E1	1.873380795E1
9.731029300E-1	-8.733802438E-1	-2.464607358E-1	1.851805496E1	1.854027766E1
9.742987640E-1	-9.092726111E-1	-1.555334777E-1	1.828834343E1	1.831159394E1
9.754945970E-1	-9.523434043E-1	-6.221338734E-2	1.801795387E1	1.804321175E1
9.766904300E-1	-9.978070259E-1	3.828516230E-2	1.771406555E1	1.774218710E1
9.778862640E-1	-1.036092162E0	1.698904037E-1	1.741017723E1	1.744180670E1
9.790820970E-1	-1.062413216E0	3.038884699E-1	1.713021660E1	1.716582042E1
9.802778780E-1	-1.091127157E0	4.378865361E-1	1.686700630E1	1.690793319E1
9.814737120E-1	-1.110269666E0	5.982056856E-1	1.660140419E1	1.664923932E1
9.826701180E-1	-1.103091240E0	7.633104324E-1	1.633101463E1	1.638601514E1
9.838661600E-1	-1.071984529E0	9.236295223E-1	1.606541061E1	1.612760554E1
9.850612120E-1	-1.016949654E0	1.091127157E0	1.581416512E1	1.588434964E1
9.862570450E-1	-9.571290612E-1	1.256231904E0	1.557009697E1	1.564998832E1
9.874528780E-1	-8.877372146E-1	1.414158225E0	1.533081436E1	1.542147171E1
9.886487120E-1	-7.968099117E-1	1.552941918E0	1.508674717E1	1.518737880E1
9.898445450E-1	-7.082754970E-1	1.672582984E0	1.484267902E1	1.495340458E1
9.910403780E-1	-6.245267391E-1	1.785045743E0	1.459621811E1	1.471822017E1
9.922361600E-1	-5.383850932E-1	1.885544300E0	1.435214996E1	1.448548737E1
9.934319930E-1	-4.402793646E-1	1.966900229E0	1.411526108E1	1.425844093E1
9.946278260E-1	-3.278166950E-1	2.033899307E0	1.388315678E1	1.403517910E1
9.958236600E-1	-2.105683982E-1	2.091326952E0	1.367498112E1	1.383557357E1
9.970194930E-1	-1.148554832E-1	2.134397745E0	1.347159195E1	1.364011126E1
9.982153260E-1	-4.546362907E-2	2.175075769E0	1.327538013E1	1.345246220E1
9.994111600E-1	2.392822690E-2	2.215753794E0	1.310070419E1	1.328678245E1
1.000606993E0	9.092725813E-2	2.270788670E0	1.295234871E1	1.315021239E1
1.001802826E0	1.483550072E-1	2.337787628E0	1.283749390E1	1.304946396E1
1.002998660E0	1.986042857E-1	2.411965132E0	1.276092339E1	1.298838655E1
1.004194441E0	2.392822653E-1	2.498106956E0	1.271306705E1	1.295838988E1
1.005390274E0	2.584248483E-1	2.577069998E0	1.269392395E1	1.295545362E1
1.006586107E0	2.751746178E-1	2.656033039E0	1.270828152E1	1.298578653E1
1.007781941E0	2.991028428E-1	2.742174864E0	1.275853062E1	1.305331716E1
1.008977774E0	3.230310678E-1	2.837887764E0	1.285424328E1	1.316774568E1
1.010173607E0	3.397808075E-1	2.919243574E0	1.298345566E1	1.331193280E1
1.011369441E0	3.708875179E-1	2.971885681E0	1.314856052E1	1.348533670E1
1.012565274E0	4.043870270E-1	3.024527788E0	1.334237862E1	1.368686832E1
1.013761107E0	4.426721931E-1	3.072384357E0	1.354098320E1	1.389221834E1
1.014956941E0	4.857429862E-1	3.081955671E0	1.373240948E1	1.408238144E1
1.016152722E0	5.431707501E-1	3.060420275E0	1.393340588E1	1.427588898E1
1.017348555E0	6.101697683E-1	3.017349243E0	1.415115356E1	1.448212176E1
1.018544389E0	6.795616150E-1	2.947957516E0	1.437847137E1	1.469328747E1
1.019740222E0	7.417750359E-1	2.876172781E0	1.461296749E1	1.491178792E1
1.020936055E0	7.968099117E-1	2.785245657E0	1.485225010E1	1.513214566E1
1.022131889E0	8.590233326E-1	2.682354212E0	1.508435440E1	1.534505435E1
1.023327722E0	9.188438654E-1	2.574677229E0	1.530688667E1	1.554908410E1
1.024523555E0	9.619147182E-1	2.450250387E0	1.551266956E1	1.573441845E1
1.025719389E0	9.930213690E-1	2.335394859E0	1.568973827E1	1.589364803E1
1.026915170E0	1.024128079E0	2.225325108E0	1.585005760E1	1.603824293E1
1.028111003E0	1.043270707E0	2.117648125E0	1.598884106E1	1.616217453E1
1.029306837E0	1.026520967E0	2.019542217E0	1.609651756E1	1.625515837E1
1.030502670E0	9.834501147E-1	1.923829436E0	1.617787361E1	1.632151612E1
1.031698503E0	9.403793216E-1	1.835294962E0	1.623290825E1	1.636337163E1
1.032894337E0	8.925228715E-1	1.763510346E0	1.626880074E1	1.638842406E1
1.034090170E0	8.279166222E-1	1.691725612E0	1.627837181E1	1.638696953E1
1.035286003E0	7.489534616E-1	1.612762451E0	1.624965858E1	1.634666138E1
1.036481837E0	6.628118753E-1	1.548156261E0	1.619462395E1	1.628195173E1
1.037677670E0	5.694918036E-1	1.490728498E0	1.611565971E1	1.619447685E1
1.038873451E0	4.809573591E-1	1.430907965E0	1.601994705E1	1.609091424E1
1.040069285E0	4.091726840E-1	1.366301775E0	1.590509224E1	1.596891236E1
1.041265118E0	3.326023519E-1	1.304088354E0	1.576870155E1	1.582602981E1
1.042460951E0	2.488535494E-1	1.268195987E0	1.561316776E1	1.566656493E1
1.043656785E0	1.579262912E-1	1.249053478E0	1.542892075E1	1.548020254E1
1.044852618E0	7.657032460E-2	1.234696507E0	1.523510170E1	1.528524329E1
1.046048451E0	4.785645287E-3	1.225125194E0	1.505085468E1	1.510063513E1
1.047244285E0	-5.742774159E-2	1.210768223E0	1.487378597E1	1.492309508E1
1.048440118E0	-1.148554832E-1	1.196411371E0	1.467518139E1	1.472431801E1
1.049635951E0	-1.722832322E-1	1.191625714E0	1.444307709E1	1.449317526E1
1.050831732E0	-2.153540403E-1	1.189232826E0	1.420140266E1	1.425273622E1
1.052027566E0	-2.512463629E-1	1.186840057E0	1.394776344E1	1.400042211E1
1.053223399E0	-2.775674164E-1	1.186840057E0	1.367258835E1	1.372680972E1
1.054419232E0	-2.871387303E-1	1.201196909E0	1.338544941E1	1.344230555E1
1.055615066E0	-2.703889608E-1	1.213161111E0	1.310070419E1	1.315953344E1
1.056810899E0	-2.344966233E-1	1.215553880E0	1.283270741E1	1.289228216E1
1.058006732E0	-2.033899277E-1	1.217946768E0	1.254078388E1	1.260142937E1
1.059202566E0	-1.555334777E-1	1.217946768E0	1.224646664E1	1.230786456E1
1.060398399E0	-1.028913707E-1	1.210768223E0	1.196172047E1	1.202328170E1
1.061594232E0	-5.264209956E-2	1.196411371E0	1.168175983E1	1.174298447E1
1.062790014E0	-7.178467698E-3	1.172483087E0	1.140897846E1	1.146906961E1
1.063985847E0	2.153540403E-2	1.160519004E0	1.114098263E1	1.120128395E1
1.065181680E0	3.349951655E-2	1.167697430E0	1.087298584E1	1.093555945E1
1.066377514E0	2.871387079E-2	1.170090318E0	1.062173939E1	1.068603217E1
1.067573347E0	7.178467698E-3	1.179661512E0	1.037767220E1	1.044450731E1
1.068769180E0	-1.435693540E-2	1.179661512E0	1.011685371E1	1.018540802E1
1.069965014E0	-5.024927482E-2	1.191625714E0	9.865608215E0	9.937440430E0
1.071160847E0	-1.076770201E-1	1.213161111E0	9.640682220E0	9.717309705E0
1.072356680E0	-1.483550072E-1	1.222732425E0	9.451649666E0	9.531566776E0
1.073552462E0	-1.698904037E-1	1.241874933E0	9.274580956E0	9.358897798E0
1.074748295E0	-1.938186288E-1	1.265803218E0	9.114261627E0	9.203781204E0
1.075944128E0	-2.225325108E-1	1.275374413E0	8.992227554E0	9.084946725E0
1.077139962E0	-2.488535494E-1	1.284945726E0	8.896514893E0	8.992273953E0
1.078335795E0	-2.512463629E-1	1.284945726E0	8.810373306E0	8.907125690E0
1.079531628E0	-2.440679073E-1	1.270588875E0	8.738588333E0	8.833849177E0
1.080727462E0	-2.129612118E-1	1.246660590E0	8.690732002E0	8.782274070E0
1.081923295E0	-1.794617027E-1	1.220339537E0	8.642875671E0	8.730448726E0
1.083119128E0	-1.411765367E-1	1.184447169E0	8.575876236E0	8.658435143E0
1.084314962E0	-9.810572863E-2	1.148554921E0	8.506484032E0	8.584234021E0
1.085510743E0	-5.982056633E-2	1.112662554E0	8.434700012E0	8.507982179E0
1.086706576E0	-9.571290575E-3	1.076770186E0	8.355736732E0	8.424836021E0
1.087902410E0	4.785645381E-2	1.038485050E0	8.267202377E0	8.332309199E0
1.089098243E0	1.076770201E-1	1.007378340E0	8.183453560E0	8.245927336E0
1.090294076E0	1.698904037E-1	9.954141974E-1	8.102097511E0	8.164783908E0
1.091489910E0	2.201396823E-1	9.858429432E-1	8.011170387E0	8.074602081E0
1.092685743E0	2.679961324E-1	9.738788009E-1	7.925028801E0	7.989139086E0
1.093881576E0	3.014956415E-1	9.523434043E-1	7.850851059E0	7.914146823E0
1.095077410E0	3.086741269E-1	9.332008362E-1	7.798209190E0	7.859911583E0
1.096273243E0	2.991028428E-1	9.116654396E-1	7.757531166E0	7.816641618E0
1.097469024E0	2.751746178E-1	8.901300430E-1	7.721638680E0	7.777644660E0
1.098664857E0	2.321037948E-1	8.781659007E-1	7.695317745E0	7.748739428E0
1.099860691E0	1.770688742E-1	8.685946465E-1	7.673782349E0	7.724813628E0
1.101056524E0	1.244267747E-1	8.638089895E-1	7.659425259E0	7.708984582E0
1.102252357E0	6.699903309E-2	8.757730722E-1	7.645068169E0	7.695357993E0
1.103448191E0	4.785645287E-3	8.853443861E-1	7.637889862E0	7.689032392E0
1.104644024E0	-5.024927482E-2	8.949156404E-1	7.633104324E0	7.685550118E0
1.105839857E0	-9.092725813E-2	9.116654396E-1	7.623532772E0	7.678388735E0
1.107035691E0	-1.316052526E-1	9.260223508E-1	7.599604607E0	7.656946357E0
1.108231524E0	-1.651047617E-1	9.332008362E-1	7.573283672E0	7.632348850E0
1.109427305E0	-1.914258152E-1	9.403793216E-1	7.549355507E0	7.610106811E0
1.110623139E0	-2.201396823E-1	9.475577474E-1	7.520641804E0	7.583296137E0
1.111818972E0	-2.321037948E-1	9.667003751E-1	7.501499176E0	7.567091362E0
1.113014805E0	-2.488535494E-1	1.004985452E0	7.549355507E0	7.620019187E0
1.114210639E0	-2.679961324E-1	1.033699393E0	7.554141045E0	7.629246574E0
1.115406472E0	-2.727817893E-1	1.055234790E0	7.470392227E0	7.549482790E0
1.116602305E0	-2.440679073E-1	1.076770186E0	7.389036179E0	7.471068118E0
1.117798139E0	-2.009970993E-1	1.081555843E0	7.283751965E0	7.366356328E0
1.118993972E0	-1.531406492E-1	1.081555843E0	7.183253765E0	7.265834416E0
1.120189753E0	-8.614161611E-2	1.086341500E0	7.075576782E0	7.159004472E0
1.121385587E0	-2.392822644E-3	1.088734269E0	6.963113785E0	7.047716057E0
1.122581420E0	8.374879509E-2	1.074377418E0	6.862615108E0	6.946710504E0
1.123777253E0	1.770688742E-1	1.050449133E0	6.778866768E0	6.862057375E0
1.124973087E0	2.703889608E-1	1.016949654E0	6.704689026E0	6.786762978E0
1.126168920E0	3.517449200E-1	9.762716293E-1	6.613761902E0	6.694675293E0
1.127364753E0	4.259224236E-1	9.379864931E-1	6.515655994E0	6.596590150E0
1.128560587E0	4.929214716E-1	9.188438654E-1	6.436692715E0	6.520602635E0
1.129756420E0	5.551348329E-1	9.092726111E-1	6.369693756E0	6.458169238E0
1.130952201E0	6.029912829E-1	8.949156404E-1	6.295516491E0	6.387331241E0
1.132148035E0	6.317051649E-1	8.781659007E-1	6.206982136E0	6.300543945E0
1.133343868E0	6.556333899E-1	8.590233326E-1	6.113661766E0	6.208432686E0
1.134539701E0	6.771687865E-1	8.590233326E-1	6.008377552E0	6.107133490E0
1.135735535E0	6.963114142E-1	8.805587292E-1	5.876772404E0	5.983033273E0
1.136931368E0	7.202396393E-1	8.997012973E-1	5.728417397E0	5.843198904E0
1.138127201E0	7.393822074E-1	9.260223508E-1	5.558526993E0	5.683434329E0
1.139323035E0	7.561319470E-1	9.714859724E-1	5.369493961E0	5.508809846E0
1.140518868E0	7.968099117E-1	1.009771109E0	5.161318302E0	5.319187000E0
1.141714701E0	8.518448472E-1	1.033699393E0	4.936393261E0	5.114895161E0
1.142910535E0	9.068797827E-1	1.069591761E0	4.701896667E0	4.906555793E0
1.144106316E0	9.690931439E-1	1.115055323E0	4.476971149E0	4.714420491E0
1.145302149E0	1.026520967E0	1.150947690E0	4.256831646E0	4.527586724E0
1.146497982E0	1.071984529E0	1.162911773E0	4.034298897E0	4.333253075E0
1.147693816E0	1.127019525E0	1.160519004E0	3.809373617E0	4.138635611E0
1.148889649E0	1.194018483E0	1.153340459E0	3.594019651E0	3.958895251E0
1.150085482E0	1.249053478E0	1.146162033E0	3.395415306E0	3.795084597E0
1.151281316E0	1.284945726E0	1.136590719E0	3.189632654E0	3.621695798E0
1.152477149E0	1.325623751E0	1.129412293E0	2.988635540E0	3.459016168E0
1.153672982E0	1.366301775E0	1.112662554E0	2.809173822E0	3.316060323E0
1.154868764E0	1.406979680E0	1.091127157E0	2.648854733E0	3.191642475E0
1.156064597E0	1.447657704E0	1.076770186E0	2.524427891E0	3.102883021E0
1.157260430E0	1.488335729E0	1.060020447E0	2.414358139E0	3.027855976E0
1.158456264E0	1.536192179E0	1.050449133E0	2.301895380E0	2.960076373E0
1.159652097E0	1.584048629E0	1.069591761E0	2.199003935E0	2.913563951E0
1.160847930E0	1.624726534E0	1.091127157E0	2.091326952E0	2.864252643E0
1.162043764E0	1.648654819E0	1.107876897E0	1.981257200E0	2.805500672E0
1.163239597E0	1.663011789E0	1.122233868E0	1.878365755E0	2.748322211E0
1.164435430E0	1.674975872E0	1.129412293E0	1.770688772E0	2.686346037E0
1.165631212E0	1.689332843E0	1.129412293E0	1.665404558E0	2.627354168E0
1.166827045E0	1.703689694E0	1.134197950E0	1.586441398E0	2.589548199E0
1.168022878E0	1.737189293E0	1.141376376E0	1.533799291E0	2.583235749E0
1.169218712E0	1.787438512E0	1.146162033E0	1.512263894E0	2.606830628E0
1.170414545E0	1.828116536E0	1.146162033E0	1.524227977E0	2.641773723E0
1.171610378E0	1.868794441E0	1.131805062E0	1.569691658E0	2.690224389E0
1.172806212E0	1.911865234E0	1.098305583E0	1.641476393E0	2.748808574E0
1.174002045E0	1.957328916E0	1.055234790E0	1.744367719E0	2.826212250E0
1.175197826E0	2.000399828E0	1.009771109E0	1.873580098E0	2.920879927E0
1.176393712E0	2.024327993E0	9.690931439E-1	2.017149448E0	3.017604554E0
1.177589493E0	2.038684845E0	9.260223508E-1	2.175075769E0	3.121651469E0
1.178785326E0	2.038684845E0	8.685946465E-1	2.323430777E0	3.210766751E0
1.179981160E0	2.026720762E0	7.992027402E-1	2.457428932E0	3.284094856E0
1.181176993E0	2.014756680E0	7.154539824E-1	2.572284460E0	3.344811837E0
1.182372826E0	2.014756680E0	6.340979934E-1	2.663211584E0	3.399120575E0
1.183568660E0	2.033899307E0	5.599204898E-1	2.734996319E0	3.454050117E0
1.184764493E0	2.055434704E0	4.905286431E-1	2.806781054E0	3.513324644E0
1.185960326E0	2.067398787E0	4.259224236E-1	2.876172781E0	3.567620708E0
1.187156107E0	2.074577332E0	3.589234054E-1	2.928814888E0	3.607028384E0
1.188351941E0	2.088934183E0	3.014956415E-1	2.976671457E0	3.648988710E0
1.189547774E0	2.088934183E0	2.392822653E-1	3.019742250E0	3.679639287E0
1.190743607E0	2.076970100E0	1.698904037E-1	3.069991350E0	3.710460138E0
1.191939441E0	2.050648928E0	1.100698411E-1	3.129812002E0	3.743394123E0
1.193135274E0	2.012363911E0	5.982056633E-2	3.189632654E0	3.771862070E0
1.194331107E0	1.962114573E0	7.178467698E-3	3.249453068E0	3.795904420E0
1.195526941E0	1.909472466E0	-3.828516230E-2	3.316452265E0	3.827062382E0
1.196722774E0	1.859223247E0	-8.135596663E-2	3.385843992E0	3.863582459E0
1.197918607E0	1.801795483E0	-1.339980662E-1	3.460021496E0	3.903353839E0
1.199114389E0	1.761117458E0	-1.866401732E-1	3.550948858E0	3.968073468E0
1.200310222E0	1.718046665E0	-2.488535494E-1	3.653840065E0	4.045263855E0
1.201506055E0	1.667797327E0	-3.158525825E-1	3.766302824E0	4.131143636E0
1.202701889E0	1.634297848E0	-3.661018610E-1	3.878765583E0	4.224900292E0
1.203897722E0	1.603191137E0	-4.235295951E-1	3.991228104E0	4.321978819E0
1.205093555E0	1.562513232E0	-4.881358147E-1	4.106083870E0	4.420367510E0
1.206289389E0	1.519442320E0	-5.503492355E-1	4.225724697E0	4.524194786E0
1.207485222E0	1.476371527E0	-5.910272002E-1	4.340580463E0	4.622729150E0
1.208681055E0	1.442872047E0	-6.293123364E-1	4.443471432E0	4.714058986E0
1.209876889E0	1.406979680E0	-6.652047038E-1	4.548755646E0	4.807625926E0
1.211072618E0	1.366301775E0	-6.963114142E-1	4.661218643E0	4.906993924E0
1.212268503E0	1.325623751E0	-7.202396393E-1	4.766502857E0	4.999557276E0
1.213464337E0	1.268195987E0	-7.345965505E-1	4.881358147E0	5.096627366E0
1.214660170E0	1.205982566E0	-7.561319470E-1	5.015356064E0	5.213437054E0
1.215856003E0	1.150947690E0	-7.776673436E-1	5.156532764E0	5.340344299E0
1.217051837E0	1.083948612E0	-7.896314859E-1	5.312066078E0	5.478732380E0
1.218247670E0	1.002592683E0	-8.039883971E-1	5.481956482E0	5.630580459E0
1.219443503E0	9.212366939E-1	-8.087740541E-1	5.649454117E0	5.780927636E0
1.220639285E0	8.446664214E-1	-8.015955687E-1	5.807380676E0	5.922979583E0
1.221835118E0	7.441678643E-1	-7.872386575E-1	5.962913990E0	6.060517615E0
1.223030951E0	6.388836503E-1	-7.704889178E-1	6.118447304E0	6.199776036E0
1.224226785E0	5.455635786E-1	-7.537391186E-1	6.269195557E0	6.337868349E0
1.225422618E0	4.642075896E-1	-7.202396393E-1	6.405586243E0	6.462644113E0
1.226618451E0	3.972085714E-1	-6.819544435E-1	6.522834301E0	6.570403628E0
1.227814285E0	3.326023519E-1	-6.412764788E-1	6.625725746E0	6.664990736E0
1.229010118E0	2.656033039E-1	-6.029912829E-1	6.728617191E0	6.760801203E0
1.230205951E0	2.009970993E-1	-5.718846321E-1	6.833901405E0	6.860733218E0
1.231401785E0	1.507478207E-1	-5.431707501E-1	6.932007313E0	6.954889270E0
1.232597566E0	1.124626622E-1	-5.144568682E-1	7.032505512E0	7.052194517E0
1.233793399E0	9.092725813E-2	-4.905286431E-1	7.118647575E0	7.136107442E0
1.234989232E0	8.135596663E-2	-4.642075896E-1	7.180860519E0	7.196309143E0
1.236185066E0	9.332008660E-2	-4.307080805E-1	7.226324558E0	7.239750321E0
1.237380899E0	1.363908947E-1	-3.900300860E-1	7.259823799E0	7.271572563E0
1.238576732E0	2.129612118E-1	-3.517449200E-1	7.295716286E0	7.307294512E0
1.239772566E0	3.038884699E-1	-3.158525825E-1	7.319644451E0	7.332755686E0
1.240968399E0	3.996013701E-1	-2.775674164E-1	7.274180889E0	7.290434317E0
1.242164232E0	5.048855543E-1	-2.560320199E-1	7.168896675E0	7.191212788E0
1.243360014E0	6.125625968E-1	-2.344966233E-1	7.070790768E0	7.101148054E0
1.244555847E0	7.202396393E-1	-2.009970993E-1	7.010970116E0	7.050733787E0
1.245751680E0	8.279166222E-1	-1.555334777E-1	7.006184578E0	7.056646437E0
1.246947514E0	9.332008362E-1	-1.004985496E-1	7.070790768E0	7.132814721E0
1.248143347E0	1.038485050E0	-5.503492057E-2	7.176074982E0	7.251036628E0
1.249339180E0	1.122233868E0	2.392822644E-3	7.305287361E0	7.390983562E0
1.250535014E0	1.182054400E0	9.810572863E-2	7.446464062E0	7.540338478E0
1.251730847E0	1.217946768E0	2.105683982E-1	7.580461979E0	7.680568807E0
1.252926680E0	1.244267821E0	3.397808075E-1	7.695317745E0	7.802664199E0
1.254122462E0	1.263410330E0	5.072783828E-1	7.788637638E0	7.906732149E0
1.255318295E0	1.251446247E0	6.843472719E-1	7.853243828E0	7.981722090E0
1.256514128E0	1.222732425E0	8.709874153E-1	7.891529083E0	8.033052031E0
1.257709962E0	1.213161111E0	1.055234790E0	7.908278942E0	8.070077829E0
1.258905795E0	1.251446247E0	1.196411371E0	7.908278942E0	8.095578652E0
1.260101628E0	1.342373490E0	1.325623751E0	7.886743546E0	8.109252041E0
1.261297462E0	1.430907965E0	1.469193101E0	7.858029366E0	8.121246917E0
1.262493295E0	1.512263894E0	1.631905079E0	7.867600918E0	8.176136036E0
1.263689128E0	1.600798368E0	1.808973908E0	7.920242786E0	8.280409882E0
1.264884910E0	1.708475351E0	1.983649969E0	7.977670670E0	8.396248242E0
1.266080743E0	1.844866276E0	2.153540373E0	8.035098076E0	8.520802122E0
1.267276576E0	2.000399828E0	2.309073925E0	8.140382767E0	8.694783117E0
1.268472410E0	2.218146563E0	2.486142635E0	8.336593628E0	8.977743185E0
1.269668243E0	2.522035122E0	2.713460922E0	8.690732002E0	9.447346404E0
1.270864076E0	2.897708178E0	2.938386202E0	9.154939651E0	1.004209869E1
1.272059910E0	3.282952785E0	3.091526747E0	9.607182503E0	1.061288237E1
1.273255743E0	3.603590965E0	3.168097258E0	9.946963310E0	1.104376689E1
1.274451524E0	3.890729666E0	3.278167009E0	1.031545830E1	1.150186229E1
1.275647357E0	4.175475597E0	3.452843189E0	1.077727318E1	1.206260087E1
1.276843191E0	4.362115860E0	3.515056372E0	1.107159042E1	1.240821464E1
1.278039024E0	4.407579422E0	3.433700562E0	1.107637596E1	1.240577125E1
1.279234857E0	4.326223373E0	3.239881754E0	1.081316566E1	1.208873832E1
1.280430691E0	4.149154663E0	2.914458036E0	1.030827999E1	1.148782775E1
1.281626524E0	3.917050600E0	2.462214470E0	9.631111145E0	1.068475958E1
1.282822357E0	3.694518089E0	1.940579176E0	9.001798630E0	9.922080932E0
1.284018191E0	3.570091486E0	1.445264935E0	8.640482903E0	9.460036403E0
1.285214024E0	3.543770313E0	1.019342422E0	8.616554260E0	9.372426278E0
1.286409857E0	3.579662561E0	6.628118753E-1	8.910871506E0	9.625847216E0
1.287605639E0	3.651447296E0	3.852444589E-1	9.454042435E0	1.014201159E1
1.288801472E0	3.747160196E0	1.890329868E-1	1.015513897E1	1.082606995E1
1.289997305E0	3.847658873E0	5.503492057E-2	1.092084217E1	1.157895942E1
1.291193139E0	3.936193228E0	-1.435693540E-2	1.171525955E1	1.235884823E1
1.292388972E0	3.979264021E0	-1.196411345E-2	1.248814106E1	1.310680558E1
1.293584805E0	3.948157310E0	4.307080805E-2	1.317966747E1	1.375839511E1
1.294780639E0	3.852444410E0	1.124626622E-1	1.377787304E1	1.430677327E1
1.295976472E0	3.675375462E0	2.177468538E-1	1.432104397E1	1.478675417E1
1.297172253E0	3.395415306E0	3.924229145E-1	1.484985733E1	1.523814633E1
1.298368087E0	3.029313564E0	6.053841114E-1	1.534517193E1	1.565303588E1
1.299563920E0	2.629712105E0	7.896314859E-1	1.575434399E1	1.599181847E1
1.300759753E0	2.218146563E0	9.212366939E-1	1.606062508E1	1.623922809E1
1.301955587E0	1.806581140E0	9.834501147E-1	1.626401520E1	1.639356886E1
1.303151420E0	1.430907965E0	9.858429432E-1	1.637647820E1	1.646840678E1
1.304347253E0	1.100698471E0	9.403793216E-1	1.644347763E1	1.650708354E1
1.305543087E0	8.207381964E-1	8.518448472E-1	1.648894119E1	1.653131672E1
1.306738920E0	5.982056856E-1	7.489534616E-1	1.653679657E1	1.656455318E1
1.307934701E0	4.307080805E-1	6.293123364E-1	1.659661865E1	1.661412935E1
1.309130535E0	3.206382394E-1	4.929214716E-1	1.668276024E1	1.669312043E1
1.310326368E0	2.560320199E-1	3.421736360E-1	1.680718613E1	1.681261850E1
1.311522201E0	2.129612118E-1	1.794617027E-1	1.695554161E1	1.695782858E1
1.312718035E0	1.986042857E-1	3.828516230E-2	1.710868263E1	1.710987817E1
1.313913868E0	1.842473447E-1	-7.417750359E-2	1.725703621E1	1.725817917E1
1.315109701E0	1.555334777E-1	-1.674975902E-1	1.739582062E1	1.739732224E1
1.316305535E0	1.363908947E-1	-2.416750938E-1	1.750828362E1	1.751048270E1
1.317501368E0	1.387837082E-1	-2.967100143E-1	1.756571198E1	1.756876589E1
1.318697149E0	1.435693651E-1	-3.182454109E-1	1.757049751E1	1.757396583E1
1.319892982E0	1.531406492E-1	-2.991028428E-1	1.755613899E1	1.755935451E1
1.321088816E0	1.866401732E-1	-2.368894368E-1	1.754896164E1	1.755155280E1
1.322284649E0	2.057827413E-1	-1.363908947E-1	1.767578125E1	1.767750525E1
1.323480482E0	1.914258152E-1	-3.110669367E-2	1.791984940E1	1.792089880E1
1.324676316E0	1.842473447E-1	8.374879509E-2	1.807777596E1	1.807890883E1
1.325872149E0	1.914258152E-1	2.536391914E-1	1.807777596E1	1.808056858E1
1.327067982E0	2.057827413E-1	4.594219327E-1	1.796531296E1	1.797236447E1
1.328263816E0	2.488535494E-1	6.891329288E-1	1.781695747E1	1.783201632E1
1.329459597E0	3.062812984E-1	9.332008362E-1	1.763749504E1	1.766482107E1
1.330655430E0	3.684946895E-1	1.153340459E0	1.742214203E1	1.746416375E1
1.331851264E0	4.642075896E-1	1.335195065E0	1.717089462E1	1.722898304E1
1.333047097E0	6.388836503E-1	1.440479279E0	1.691246986E1	1.698572312E1
1.334242930E0	8.757730722E-1	1.462014675E0	1.664208221E1	1.672911731E1
1.335438764E0	1.107876897E0	1.464407444E0	1.635255051E1	1.645532705E1
1.336634597E0	1.308874011E0	1.481157184E0	1.607737541E1	1.619842517E1
1.337830430E0	1.505085468E0	1.509871125E0	1.580220032E1	1.594536070E1
1.339026264E0	1.701296926E0	1.560120344E0	1.553899002E1	1.570950660E1
1.340222045E0	1.887937069E0	1.615155339E0	1.530449390E1	1.550485623E1
1.341417878E0	2.060220242E0	1.670190215E0	1.506281853E1	1.529452663E1
1.342613712E0	2.237289190E0	1.730010748E0	1.482114315E1	1.508856138E1
1.343809545E0	2.411965132E0	1.799402595E0	1.460100365E1	1.490787486E1
1.345005378E0	2.569891453E0	1.883151412E0	1.440957832E1	1.475759292E1
1.346201212E0	2.720639229E0	1.969292998E0	1.426840115E1	1.465835134E1
1.347397045E0	2.837887764E0	2.072184324E0	1.420379543E1	1.463199780E1
1.348592878E0	2.902493954E0	2.187039852E0	1.421575928E1	1.467294879E1
1.349788712E0	2.924029350E0	2.311466694E0	1.425165176E1	1.473100146E1
1.350984493E0	2.916850805E0	2.457428932E0	1.427079391E1	1.477168015E1
1.352180326E0	2.885744095E0	2.603390932E0	1.423250866E1	1.475362552E1
1.353376160E0	2.840280533E0	2.746960402E0	1.413679600E1	1.467862344E1
1.354571993E0	2.797209740E0	2.895315409E0	1.400279808E1	1.457002360E1
1.355767826E0	2.761317253E0	3.043670416E0	1.383530045E1	1.443275237E1
1.356963660E0	2.720639229E0	3.180061340E0	1.365344620E1	1.428045031E1
1.358159493E0	2.699103832E0	3.290131092E0	1.348116302E1	1.413689784E1
1.359355326E0	2.691925526E0	3.383451223E0	1.333520031E1	1.401862235E1
1.360551160E0	2.672782898E0	3.476771355E0	1.322513103E1	1.393326230E1
1.361746993E0	2.646461725E0	3.550948858E0	1.314377499E1	1.386981681E1
1.362942774E0	2.612962246E0	3.598805189E0	1.307916832E1	1.381461597E1
1.364138607E0	2.565105915E0	3.632304668E0	1.304088306E1	1.377817247E1
1.365334441E0	2.500499725E0	3.651447296E0	1.302174091E1	1.375322881E1
1.366530274E0	2.428714991E0	3.649054527E0	1.299302673E1	1.371251250E1
1.367726107E0	2.354537487E0	3.637090445E0	1.295474148E1	1.366007322E1
1.368921941E0	2.297109842E0	3.622733593E0	1.291884899E1	1.361240506E1
1.370117774E0	2.256431818E0	3.589233875E0	1.289013577E1	1.356943935E1
1.371313607E0	2.232503414E0	3.543770313E0	1.286620712E1	1.353076736E1
1.372509441E0	2.237289190E0	3.493520975E0	1.284467220E1	1.349799080E1
1.373705222E0	2.263610125E0	3.433700562E0	1.283510113E1	1.347790975E1
1.374901055E0	2.292324066E0	3.385843992E0	1.284945774E1	1.348433363E1
1.376096889E0	2.311466694E0	3.359523058E0	1.288535023E1	1.351523303E1
1.377292722E0	2.316252232E0	3.330809116E0	1.292842102E1	1.355003261E1
1.378488555E0	2.304288149E0	3.292523861E0	1.297627735E1	1.358433771E1
1.379684389E0	2.275574446E0	3.249453068E0	1.302891922E1	1.361946843E1
1.380880222E0	2.239681959E0	3.211168051E0	1.309113312E1	1.366402363E1
1.382076055E0	2.196611166E0	3.175275564E0	1.315573883E1	1.371061413E1
1.383271837E0	2.143969059E0	3.136990547E0	1.322034550E1	1.375553881E1
1.384467670E0	2.072184324E0	3.108276606E0	1.329691505E1	1.381170812E1
1.385663503E0	2.000399828E0	3.079562664E0	1.337109280E1	1.386619732E1
1.386859337E0	1.928615093E0	3.046063185E0	1.344287777E1	1.391793878E1
1.388055170E0	1.854437590E0	2.991028309E0	1.349312687E1	1.394452085E1
1.389251003E0	1.785045743E0	2.926422119E0	1.351466274E1	1.394261252E1
1.390446837E0	1.720439434E0	2.861815929E0	1.352423382E1	1.393035544E1
1.391642670E0	1.655833244E0	2.763710260E0	1.350269794E1	1.388174088E1
1.392838503E0	1.600798368E0	2.658426046E0	1.345962715E1	1.381272412E1
1.394034285E0	1.555334687E0	2.562713146E0	1.342612743E1	1.375672427E1
1.395230118E0	1.502692580E0	2.467000246E0	1.341894913E1	1.372633858E1
1.396425951E0	1.433300734E0	2.373680115E0	1.341655636E1	1.370009828E1
1.397621785E0	1.347159147E0	2.268395901E0	1.339023590E1	1.364766922E1
1.398817618E0	1.256231904E0	2.143969059E0	1.328734398E1	1.351770069E1
1.400013451E0	1.174875975E0	2.026720762E0	1.317966747E1	1.338624538E1
1.401209285E0	1.103091240E0	1.938186288E0	1.316530991E1	1.335285592E1
1.402405118E0	1.036092162E0	1.890329838E0	1.318923855E1	1.336423763E1
1.403600951E0	9.595218897E-1	1.861616015E0	1.319880962E1	1.336393924E1
1.404796732E0	8.805587292E-1	1.828116536E0	1.318923855E1	1.334441483E1
1.405992566E0	8.255237937E-1	1.799402595E0	1.314138222E1	1.328966763E1
1.407188399E0	7.824530005E-1	1.773081541E0	1.306720448E1	1.321014321E1
1.408384232E0	7.609176040E-1	1.744367719E0	1.297867012E1	1.311745754E1
1.409580066E0	7.513462901E-1	1.708475351E0	1.286142159E1	1.299613691E1
1.410775899E0	7.441678643E-1	1.682154298E0	1.274417305E1	1.287623297E1
1.411971732E0	7.465606928E-1	1.679761529E0	1.262931824E1	1.276239127E1
1.413167566E0	7.465606928E-1	1.679761529E0	1.248096275E1	1.261560077E1
1.414363399E0	7.226324677E-1	1.686939955E0	1.230628681E1	1.244237354E1
1.415559180E0	6.891329288E-1	1.718046665E0	1.212921810E1	1.226965852E1
1.416755014E0	6.628118753E-1	1.761117458E0	1.196172047E1	1.210882368E1
1.417950847E0	6.340979934E-1	1.811366796E0	1.180140114E1	1.195642918E1
1.419146680E0	6.005984545E-1	1.866401672E0	1.162193966E1	1.178616372E1
1.420342514E0	5.623133183E-1	1.921436548E0	1.144726372E1	1.162101378E1
1.421538347E0	5.575276613E-1	1.971685886E0	1.132762241E1	1.151144699E1
1.422734180E0	6.412764788E-1	2.012363911E0	1.128215885E1	1.147815109E1
1.423930014E0	7.920243144E-1	2.043470621E0	1.130130100E1	1.151184082E1
1.425125795E0	8.446664214E-1	2.096112728E0	1.109791183E1	1.132566983E1
1.426321628E0	7.872386575E-1	2.196611166E0	1.060977554E1	1.086334122E1
1.427517462E0	7.250252366E-1	2.316252232E0	1.007378292E1	1.036203592E1
1.428713295E0	6.747759581E-1	2.404786825E0	9.566504478E0	9.887180094E0
1.429909128E0	6.077769399E-1	2.471785784E0	9.159725189E0	9.506822987E0
1.431104962E0	5.072783828E-1	2.560320139E0	8.865407944E0	9.241646422E0
1.432300795E0	3.804588020E-1	2.677568436E0	8.654839516E0	9.067544798E0
1.433496628E0	2.488535494E-1	2.818745136E0	8.470592499E0	8.930744063E0
1.434692462E0	1.292124242E-1	2.964707375E0	8.283951759E0	8.799434210E0
1.435888243E0	3.828516230E-2	3.105883837E0	8.082955360E0	8.659223263E0
1.437084076E0	-3.589234129E-2	3.239881754E0	7.884350777E0	8.524148591E0
1.438279910E0	-1.004985496E-1	3.345165968E0	7.695317745E0	8.391552330E0
1.439475743E0	-1.435693651E-1	3.438486099E0	7.508677483E0	8.259784280E0
1.440671576E0	-1.698904037E-1	3.512663603E0	7.343572617E0	8.142218808E0
1.441867410E0	-1.962114573E-1	3.565305710E0	7.204789162E0	8.041075214E0
1.443063243E0	-2.033899277E-1	3.610769272E0	7.089933395E0	7.959031207E0
1.444259076E0	-1.938186288E-1	3.646661758E0	6.987041950E0	7.883810174E0
1.445454910E0	-1.938186288E-1	3.665804386E0	6.893722057E0	7.810191500E0
1.446650691E0	-1.866401732E-1	3.663411379E0	6.800402164E0	7.726634913E0
1.447846524E0	-1.555334777E-1	3.649054527E0	6.707081795E0	7.637063297E0
1.449042357E0	-1.172483116E-1	3.625126362E0	6.611369133E0	7.540921039E0
1.450238191E0	-8.853443712E-2	3.603590965E0	6.503692150E0	7.435840085E0
1.451434024E0	-9.092725813E-2	3.589233875E0	6.391229153E0	7.330666931E0
1.452629857E0	-1.052841991E-1	3.572484255E0	6.271588326E0	7.218486589E0
1.453825691E0	-1.316052526E-1	3.560520172E0	6.159125328E0	7.115437347E0
1.455021524E0	-1.794617027E-1	3.562912941E0	6.056233883E0	7.028835179E0
1.456217357E0	-2.344966233E-1	3.574877024E0	5.953342915E0	6.948167115E0
1.457413139E0	-2.991028428E-1	3.577269793E0	5.857629776E0	6.870090849E0
1.458608972E0	-3.708875179E-1	3.567698479E0	5.766702652E0	6.791236225E0
1.459804805E0	-4.378865361E-1	3.577269793E0	5.711667538E0	6.753647152E0
1.461000639E0	-4.953143001E-1	3.594019651E0	5.728417397E0	6.780640042E0
1.462196472E0	-5.240281820E-1	3.570091486E0	5.804987907E0	6.835059865E0
1.463392305E0	-5.479564071E-1	3.517449379E0	5.864808083E0	6.860661790E0
1.464588139E0	-6.221339107E-1	3.467200041E0	5.819344521E0	6.802447896E0
1.465783972E0	-7.465606928E-1	3.397808075E0	5.675775528E0	6.657092490E0
1.466979753E0	-9.140582681E-1	3.220739365E0	5.503491879E0	6.441823300E0
1.468175587E0	-1.067198873E0	3.010170937E0	5.352744102E0	6.233130187E0
1.469371420E0	-1.162911773E0	2.902493954E0	5.237888813E0	6.100189682E0
1.470567253E0	-1.237089276E0	2.883351326E0	5.146961689E0	6.027878514E0
1.471763087E0	-1.311266780E0	2.928814888E0	5.082355499E0	6.010633464E0
1.472958920E0	-1.380658627E0	3.010170937E0	5.067998409E0	6.054085826E0
1.474154753E0	-1.418943882E0	3.105883837E0	5.127819061E0	6.160717854E0
1.475350587E0	-1.404586911E0	3.211168051E0	5.326423168E0	6.376146831E0
1.476546420E0	-1.227517962E0	3.357130051E0	5.929414749E0	6.923516577E0
1.477742201E0	-9.188438654E-1	3.495913982E0	6.781259537E0	7.684475878E0
1.478938035E0	-7.513462901E-1	3.536591768E0	7.252645493E0	8.103879887E0
1.480133868E0	-8.398807645E-1	3.507878065E0	7.185646534E0	8.040156984E0
1.481329701E0	-1.103091240E0	3.440878868E0	6.759724140E0	7.664876263E0
1.482525535E0	-1.428515077E0	3.311666489E0	6.183053493E0	7.158068228E0
1.483721368E0	-1.682154298E0	3.129812002E0	5.711667538E0	6.726701444E0
1.484917201E0	-1.847259045E0	2.880958557E0	5.395814896E0	6.389609266E0
1.486112982E0	-1.971685886E0	2.596212626E0	5.139782906E0	6.086479569E0
1.487308816E0	-2.072184324E0	2.335394859E0	4.917250633E0	5.824720664E0
1.488504649E0	-2.187039852E0	2.100898266E0	4.697110653E0	5.591043313E0
1.489700482E0	-2.306680918E0	1.892722726E0	4.448257446E0	5.356320610E0
1.490896316E0	-2.366501570E0	1.725225091E0	4.252045631E0	5.163005263E0
1.492092149E0	-2.325823545E0	1.636690736E0	4.204189301E0	5.075767863E0
1.493287982E0	-2.189432621E0	1.629512191E0	4.321437836E0	5.111139809E0
1.494483816E0	-2.014756680E0	1.686939955E0	4.589433670E0	5.288469750E0
1.495679649E0	-1.823330879E0	1.787438512E0	4.989035130E0	5.604457463E0
1.496875482E0	-1.615155339E0	1.935793519E0	5.462814331E0	6.016507603E0
1.498071264E0	-1.430907965E0	2.100898266E0	5.912664890E0	6.435905316E0
1.499267097E0	-1.275374413E0	2.266003132E0	6.273981094E0	6.791479136E0
1.500462930E0	-1.148554921E0	2.426322222E0	6.498906136E0	7.031500472E0
1.501658764E0	-1.071984529E0	2.548356056E0	6.573083878E0	7.130827517E0
1.502854597E0	-1.040877819E0	2.629712105E0	6.549155712E0	7.133740459E0
1.504050430E0	-1.007378340E0	2.672782898E0	6.491727829E0	7.092327527E0
1.505246264E0	-9.523434043E-1	2.699103832E0	6.467799664E0	7.072803683E0
1.506442097E0	-8.494520187E-1	2.718246460E0	6.539584160E0	7.132783015E0
1.507637878E0	-6.867401004E-1	2.699103832E0	6.666403770E0	7.224798453E0
1.508833712E0	-5.000999570E-1	2.648854733E0	6.697510719E0	7.219638578E0
1.510029545E0	-3.684946895E-1	2.565105915E0	6.477370739E0	6.976524090E0
1.511225378E0	-3.996013701E-1	2.478964329E0	5.948556900E0	6.456800647E0
1.512421212E0	-5.527420044E-1	2.419143677E0	5.233103275E0	5.791644822E0
1.513617045E0	-6.867401004E-1	2.349751949E0	4.560719967E0	5.176206411E0
1.514812878E0	-7.441678643E-1	2.256431818E0	4.074976921E0	4.717065536E0
1.516008712E0	-7.417750359E-1	2.158325911E0	3.766302824E0	4.403820830E0
1.517204545E0	-6.915257573E-1	2.100898266E0	3.622733593E0	4.244547100E0
1.518400326E0	-6.293123364E-1	2.098505497E0	3.582055569E0	4.198914316E0
1.519596160E0	-5.718846321E-1	2.127219439E0	3.584448338E0	4.207182484E0
1.520791993E0	-5.216353536E-1	2.201396942E0	3.596412420E0	4.248815627E0
1.521987826E0	-4.785645306E-1	2.297109842E0	3.610769272E0	4.306203940E0
1.523183660E0	-4.187439680E-1	2.395215511E0	3.637090445E0	4.375023515E0
1.524379493E0	-3.445664644E-1	2.512463808E0	3.665804386E0	4.457501793E0
1.525575326E0	-2.679961324E-1	2.636890650E0	3.677768469E0	4.533320542E0
1.526771160E0	-2.225325108E-1	2.758924484E0	3.617947817E0	4.555297074E0
1.527966941E0	-2.321037948E-1	2.861815929E0	3.438486099E0	4.479626016E0
1.529162774E0	-2.703889608E-1	2.938386202E0	3.194418192E0	4.348739041E0
1.530358607E0	-2.799602449E-1	3.002992392E0	2.976671457E0	4.237559912E0
1.531554441E0	-2.560320199E-1	3.046063185E0	2.816352367E0	4.156428031E0
1.532750274E0	-1.986042857E-1	3.077169895E0	2.706282377E0	4.102728669E0
1.533946107E0	-1.172483116E-1	3.110669374E0	2.617748022E0	4.067261466E0
1.535141941E0	-4.067798331E-2	3.148954630E0	2.550748825E0	4.052639822E0
1.536337774E0	2.871387079E-2	3.194418192E0	2.476571321E0	4.042095692E0
1.537533607E0	8.853443712E-2	3.249453068E0	2.404786825E0	4.043486523E0
1.538729389E0	1.268195957E-1	3.318845034E0	2.361716032E0	4.075354976E0
1.539925222E0	1.387837082E-1	3.397808075E0	2.340180635E0	4.128051119E0
1.541121055E0	1.316052526E-1	3.469592810E0	2.344966173E0	4.189780491E0
1.542316889E0	1.100698411E-1	3.527020693E0	2.378465652E0	4.255477552E0
1.543512722E0	8.614161611E-2	3.574877024E0	2.426322222E0	4.321366177E0
1.544708555E0	3.589234129E-2	3.603590965E0	2.474178553E0	4.371351692E0
1.545904389E0	-2.632104978E-2	3.610769272E0	2.541177750E0	4.415419786E0
1.547100170E0	-9.332008660E-2	3.594019651E0	2.627319336E0	4.452919580E0
1.548296003E0	-1.866401732E-1	3.460021496E0	2.995813847E0	4.580554978E0
1.549491837E0	-2.368894368E-1	3.287738323E0	3.747160196E0	4.990646193E0
1.550687670E0	-2.991028428E-1	3.220739365E0	3.706482172E0	4.919414056E0
1.551883503E0	-4.235295951E-1	3.225524902E0	2.837887764E0	4.317058625E0
1.553079337E0	-4.713860750E-1	3.285345554E0	2.266003132E0	4.018764790E0
1.554275170E0	-4.546363056E-1	3.335594654E0	2.213361025E0	4.028877374E0
1.555471003E0	-4.618147612E-1	3.326023579E0	2.574677229E0	4.231390853E0
1.556666837E0	-5.455635786E-1	3.285345554E0	3.048455954E0	4.514888562E0
1.557862670E0	-7.154539824E-1	3.235096216E0	3.488735437E0	4.811340445E0
1.559058451E0	-9.643075466E-1	3.165704250E0	3.895515203E0	5.111419680E0
1.560254285E0	-1.268195987E0	3.081955671E0	4.290330887E0	5.432652293E0
1.561450118E0	-1.588834286E0	2.986242771E0	4.701896667E0	5.792225181E0
1.562645951E0	-1.897508383E0	2.864208698E0	5.180460930E0	6.216221117E0
1.563841785E0	-2.179861546E0	2.725425005E0	5.682953835E0	6.669010579E0
1.565037618E0	-2.431107759E0	2.589034081E0	6.144768715E0	7.097292791E0
1.566233451E0	-2.639283419E0	2.450250387E0	6.544369698E0	7.469827218E0
1.567429285E0	-2.790031195E0	2.318645239E0	6.876972198E0	7.775161505E0
1.568625118E0	-2.888136864E0	2.201396942E0	7.178467751E0	8.044742525E0
1.569820899E0	-2.959921598E0	2.091326952E0	7.441678524E0	8.277279960E0
1.571016732E0	-3.019742250E0	2.005185366E0	7.657032490E0	8.471703380E0
1.572212566E0	-3.062813044E0	1.954936147E0	7.841279984E0	8.642237607E0
1.573408399E0	-3.103491068E0	1.931007862E0	8.018348694E0	8.812171353E0
1.574604232E0	-3.158525944E0	1.911865234E0	8.178668022E0	8.973412140E0
1.575800066E0	-3.220739365E0	1.909472466E0	8.310273170E0	9.114816911E0
1.576995899E0	-3.294916868E0	1.933400750E0	8.420342445E0	9.246441614E0
1.578191680E0	-3.381058455E0	1.957328916E0	8.516056061E0	9.369413193E0
1.579387514E0	-3.469592810E0	1.974078655E0	8.602197647E0	9.483294004E0
1.580583347E0	-3.546163082E0	2.017149448E0	8.690732002E0	9.600676395E0
1.581779180E0	-3.605983734E0	2.088934183E0	8.779266357E0	9.718141926E0
1.582975014E0	-3.661018610E0	2.182254314E0	8.860622406E0	9.832391397E0
1.584170847E0	-3.706482172E0	2.306680918E0	8.934800148E0	9.944317002E0
1.585366680E0	-3.730410576E0	2.433500528E0	8.997013092E0	1.003913007E1
1.586562514E0	-3.699303865E0	2.531606436E0	9.013762474E0	1.006686615E1
1.587758347E0	-3.610769272E0	2.620140791E0	9.008976936E0	1.005308201E1
1.588954128E0	-3.486342669E0	2.701496840E0	9.028120041E0	1.004786653E1
1.590149962E0	-3.316452265E0	2.782852650E0	9.054440498E0	1.003623521E1
1.591345795E0	-3.115455151E0	2.861815929E0	9.068798065E0	1.000695506E1
1.592541628E0	-2.904886723E0	2.935993433E0	9.061619759E0	9.958482663E0
1.593737462E0	-2.663211584E0	2.983849764E0	9.054440498E0	9.898431598E0
1.594933295E0	-2.400001049E0	3.000599623E0	9.068798065E0	9.849198012E0
1.596129128E0	-2.134397745E0	2.993421078E0	9.097511292E0	9.812284911E0
1.597324962E0	-1.852044702E0	2.964707375E0	9.119047165E0	9.766093415E0
1.598520795E0	-1.557727575E0	2.914458036E0	9.166903496E0	9.744367632E0
1.599716576E0	-1.246660590E0	2.833101988E0	9.241081238E0	9.745676577E0
1.600912410E0	-9.475577474E-1	2.730210543E0	9.341579437E0	9.778395660E0
1.602108243E0	-6.652047038E-1	2.608176708E0	9.477970123E0	9.852766144E0
1.603304076E0	-3.900300860E-1	2.478964329E0	9.638289452E0	9.959619027E0
1.604499910E0	-1.316052526E-1	2.340180635E0	9.817750931E0	1.009366131E1
1.605695743E0	1.148554832E-1	2.208575249E0	1.001396275E1	1.025526432E1
1.606891576E0	3.493520916E-1	2.100898266E0	1.022931671E1	1.044867172E1
1.608087410E0	5.599204898E-1	2.000399828E0	1.048534870E1	1.068913691E1
1.609283191E0	7.537391186E-1	1.919043779E0	1.078205872E1	1.097741508E1
1.610479024E0	9.427721500E-1	1.849651933E0	1.110987568E1	1.130218427E1
1.611674857E0	1.107876897E0	1.765903115E0	1.148554897E1	1.167320180E1
1.612870691E0	1.253839016E0	1.670190215E0	1.188036442E1	1.206253316E1
1.614066524E0	1.397408366E0	1.576870084E0	1.229193020E1	1.247119952E1
1.615262357E0	1.531406522E0	1.478764415E0	1.274656582E1	1.292311457E1
1.616458191E0	1.648654819E0	1.363908887E0	1.322513103E1	1.339710420E1
1.617654024E0	1.753939033E0	1.241874933E0	1.370369530E1	1.387118669E1
1.618849805E0	1.842473388E0	1.112662554E0	1.416551018E1	1.432809843E1
1.620045639E0	1.938186288E0	9.762716293E-1	1.460339642E1	1.476376846E1
1.621241472E0	2.050648928E0	8.542376757E-1	1.502214050E1	1.518550586E1
1.622437305E0	2.143969059E0	7.585247755E-1	1.543849182E1	1.560509509E1
1.623633139E0	2.227717876E0	6.819544435E-1	1.586202145E1	1.603220238E1
1.624828972E0	2.294716835E0	6.101697683E-1	1.627837181E1	1.645063589E1
1.626024805E0	2.330609322E0	5.455635786E-1	1.668276024E1	1.685360106E1
1.627220639E0	2.344966173E0	4.881358147E-1	1.707996750E1	1.724709925E1
1.628416420E0	2.335394859E0	4.283152521E-1	1.748435593E1	1.764483565E1
1.629612253E0	2.340180635E0	3.421736360E-1	1.786720657E1	1.802305742E1
1.630808087E0	2.342573404E0	2.225325108E-1	1.820459557E1	1.835604725E1
1.632003920E0	2.328216314E0	9.571290761E-2	1.850848389E1	1.865459000E1
1.633199753E0	2.309073925E0	-3.589234129E-2	1.877169418E1	1.891321266E1
1.634395587E0	2.268395901E0	-1.555334777E-1	1.900858307E1	1.914408632E1
1.635591420E0	2.215753794E0	-2.392822653E-1	1.925982857E1	1.938834230E1
1.636787253E0	2.155933142E0	-3.302095234E-1	1.949193382E1	1.961358127E1
1.637983087E0	2.086541414E0	-4.283152521E-1	1.967617989E1	1.979113852E1
1.639178868E0	1.995614052E0	-5.288137794E-1	1.982214355E1	1.992936262E1
1.640374701E0	1.890329838E0	-6.436693072E-1	1.992024803E1	2.002008838E1
1.641570535E0	1.773081541E0	-7.441678643E-1	1.997289085E1	2.006524291E1
1.642766368E0	1.653440475E0	-8.446664214E-1	1.997528267E1	2.006138690E1
1.643962201E0	1.526620865E0	-9.523434043E-1	1.993221283E1	2.001326154E1
1.645158035E0	1.375872970E0	-1.043270707E0	1.984128571E1	1.991627622E1
1.646353868E0	1.225125194E0	-1.107876897E0	1.971207237E1	1.978115568E1
1.647549701E0	1.076770186E0	-1.143769264E0	1.955653954E1	1.961952805E1
1.648745482E0	9.451649189E-1	-1.167697430E0	1.936989975E1	1.942806914E1
1.649941316E0	8.350951076E-1	-1.184447169E0	1.914736748E1	1.920213478E1
1.651137149E0	7.322037220E-1	-1.186840057E0	1.888415718E1	1.893557773E1
1.652332982E0	6.388836503E-1	-1.172483087E0	1.859462547E1	1.864250480E1
1.653528816E0	5.623133183E-1	-1.136590719E0	1.828594971E1	1.832986610E1
1.654724649E0	5.000999570E-1	-1.088734269E0	1.795813370E1	1.799805568E1
1.655920482E0	4.426721931E-1	-1.024128079E0	1.763510323E1	1.767036114E1
1.657116316E0	3.661018610E-1	-9.403793216E-1	1.732164383E1	1.735101406E1
1.658312097E0	3.134597540E-1	-8.398807645E-1	1.702254105E1	1.704613036E1
1.659507930E0	2.895315289E-1	-7.250252366E-1	1.675454330E1	1.677272224E1
1.660703764E0	2.703889608E-1	-6.053841114E-1	1.650808334E1	1.652139267E1
1.661899597E0	2.584248483E-1	-4.713860750E-1	1.625922966E1	1.626811413E1
1.663095430E0	2.727817893E-1	-3.349951804E-1	1.600559044E1	1.601141958E1
1.664291264E0	2.919243574E-1	-1.986042857E-1	1.571605873E1	1.572002435E1
1.665487097E0	3.014956415E-1	-6.221338734E-2	1.540499210E1	1.540806775E1
1.666682930E0	3.182454109E-1	7.896314561E-2	1.508913994E1	1.509270219E1
1.667878712E0	3.278166950E-1	2.321037948E-1	1.478046513E1	1.478592186E1
1.669074545E0	3.421736360E-1	3.828516304E-1	1.448375511E1	1.449285411E1
1.670270378E0	3.541377485E-1	5.407779217E-1	1.421097374E1	1.422566796E1
1.671466212E0	3.517449200E-1	7.058826685E-1	1.396690559E1	1.398915461E1
1.672662045E0	3.421736360E-1	8.566305041E-1	1.374437332E1	1.377529298E1
1.673857878E0	3.302095234E-1	9.930213690E-1	1.355294704E1	1.359328891E1
1.675053712E0	3.110669553E-1	1.127019525E0	1.337109280E1	1.342211080E1
1.676249545E0	3.014956415E-1	1.253839016E0	1.319402409E1	1.325689570E1
1.677445378E0	2.991028428E-1	1.366301775E0	1.304088306E1	1.311567284E1
1.678641160E0	3.062812984E-1	1.476371527E0	1.291406345E1	1.300178895E1
1.679836993E0	3.254238665E-1	1.588834286E0	1.281835079E1	1.292054225E1
1.681032826E0	3.565305769E-1	1.698904037E0	1.274178028E1	1.285948497E1
1.682228660E0	4.019941986E-1	1.780260086E0	1.268913841E1	1.281971759E1
1.683424493E0	4.426721931E-1	1.835294962E0	1.266999626E1	1.280988179E1
1.684620326E0	4.785645306E-1	1.880758643E0	1.269153118E1	1.283905140E1
1.685816160E0	5.240281820E-1	1.923829436E0	1.274895859E1	1.290394011E1
1.687011993E0	5.718846321E-1	1.947757602E0	1.282552910E1	1.298518419E1
1.688207774E0	6.269195080E-1	1.962114573E0	1.293799210E1	1.310093741E1
1.689403607E0	6.939185858E-1	1.983649969E0	1.307438278E1	1.324220055E1
1.690599441E0	7.441678643E-1	2.005185366E0	1.320838070E1	1.338042880E1
1.691795274E0	7.728816867E-1	2.007578135E0	1.335195065E1	1.352413776E1
1.692991107E0	8.255237937E-1	2.000399828E0	1.351226902E1	1.368446210E1
1.694186941E0	9.068797827E-1	2.007578135E0	1.367258835E1	1.384891595E1
1.695382774E0	9.810572863E-1	2.033899307E0	1.382094383E1	1.400420323E1
1.696578607E0	1.052842021E0	2.057827473E0	1.396451283E1	1.415453103E1
1.697774389E0	1.136590719E0	2.055434704E0	1.411526108E1	1.430934120E1
1.698970222E0	1.229910851E0	2.045863390E0	1.427079391E1	1.446906343E1
1.700166055E0	1.325623751E0	2.038684845E0	1.441197109E1	1.461569105E1
1.701361889E0	1.418943882E0	2.033899307E0	1.451964760E1	1.472991224E1
1.702557722E0	1.495514154E0	2.017149448E0	1.460578918E1	1.482007194E1
1.703753555E0	1.557727575E0	1.988435626E0	1.467996693E1	1.489569805E1
1.704949389E0	1.619940877E0	1.954936147E0	1.474457359E1	1.496156523E1
1.706145222E0	1.679761529E0	1.928615093E0	1.479960823E1	1.501897329E1
1.707341003E0	1.727617979E0	1.890329838E0	1.484507179E1	1.506433428E1
1.708536837E0	1.765903115E0	1.842473388E0	1.489292812E1	1.511001092E1
1.709732670E0	1.804188251E0	1.782652855E0	1.492642784E1	1.514038291E1
1.710928503E0	1.828116536E0	1.718046665E0	1.493360615E1	1.514286258E1
1.712124337E0	1.847259045E0	1.651047587E0	1.492403507E1	1.512828962E1
1.713320170E0	1.852044702E0	1.572084427E0	1.490489197E1	1.510156693E1
1.714516003E0	1.859223247E0	1.481157184E0	1.487378597E1	1.506253786E1
1.715711837E0	1.878365755E0	1.383051515E0	1.482832146E1	1.501066976E1
1.716907670E0	1.899901152E0	1.270588875E0	1.477567959E1	1.495141223E1
1.718103451E0	1.904686809E0	1.153340459E0	1.471346664E1	1.488099885E1
1.719299285E0	1.902294040E0	1.043270707E0	1.463450336E1	1.479445251E1
1.720495118E0	1.909472466E0	9.403793216E-1	1.454357624E1	1.469850361E1
1.721690951E0	1.909472466E0	8.422735929E-1	1.444068432E1	1.459071189E1
1.722886785E0	1.911865234E0	7.561319470E-1	1.433300781E1	1.447971261E1
1.724082618E0	1.928615093E0	6.867401004E-1	1.421815205E1	1.436478387E1
1.725278451E0	1.957328916E0	6.197410822E-1	1.408654690E1	1.423537913E1
1.726474232E0	1.981257200E0	5.551348329E-1	1.394058514E1	1.409160987E1
1.727670066E0	1.998006940E0	4.881358147E-1	1.377069473E1	1.392344576E1
1.728865899E0	2.012363911E0	4.354937077E-1	1.357687569E1	1.373210897E1
1.730061732E0	2.024327993E0	3.924229145E-1	1.336870003E1	1.352678971E1
1.731257566E0	2.043470621E0	3.469592929E-1	1.315095329E1	1.331329131E1
1.732453399E0	2.060220242E0	2.967100143E-1	1.293081379E1	1.309727031E1
1.733649232E0	2.060220242E0	2.440679073E-1	1.273699474E1	1.290484838E1
1.734845066E0	2.057827473E0	2.105683982E-1	1.256231880E1	1.273149035E1
1.736040899E0	2.053041935E0	1.938186288E-1	1.240199947E1	1.257227656E1
1.737236680E0	2.043470621E0	1.794617027E-1	1.226321602E1	1.243360148E1
1.738432514E0	2.026720762E0	1.746760458E-1	1.210768223E1	1.227738073E1
1.739628347E0	2.005185366E0	1.627119333E-1	1.194257736E1	1.211083802E1
1.740824180E0	1.983649969E0	1.531406492E-1	1.177508068E1	1.194197824E1
1.742020014E0	1.964507341E0	1.363908947E-1	1.158604717E1	1.175220748E1
1.743215847E0	1.940579176E0	1.052841991E-1	1.139940739E1	1.156388434E1
1.744411680E0	1.909472466E0	7.657032460E-2	1.120558834E1	1.136737253E1
1.745607462E0	1.890329838E0	4.307080805E-2	1.100937653E1	1.117056729E1
1.746803295E0	1.866401672E0	1.914258115E-2	1.082034397E1	1.098014869E1
1.747999128E0	1.837687731E0	0.000000000E0	1.063848972E1	1.079604371E1
1.749194962E0	1.806581140E0	-1.435693540E-2	1.046142101E1	1.061627388E1
1.750390795E0	1.763510346E0	-1.435693540E-2	1.027717304E1	1.042738992E1
1.751586628E0	1.720439434E0	-1.674975827E-2	1.007617569E1	1.022201100E1
1.752782462E0	1.684547186E0	-1.674975827E-2	9.868000984E0	1.001076537E1
1.753978295E0	1.655833244E0	2.392822644E-3	9.657432556E0	9.798356650E0
1.755174128E0	1.636690736E0	2.153540403E-2	9.458827972E0	9.599408677E0
1.756369910E0	1.615155339E0	3.349951655E-2	9.274580956E0	9.414228640E0
1.757565743E0	1.576870084E0	4.067798331E-2	9.073583603E0	9.209673901E0
1.758761576E0	1.533799291E0	2.632104978E-2	8.853444099E0	8.985360621E0
1.759957410E0	1.497906923E0	2.392822644E-3	8.623732567E0	8.752856349E0
1.761153243E0	1.469193101E0	-1.196411345E-2	8.405985832E0	8.533420728E0
1.762349076E0	1.428515077E0	-4.067798331E-2	8.207381248E0	8.330871322E0
1.763544910E0	1.392622828E0	-6.699903309E-2	8.035098076E0	8.155163291E0
1.764740743E0	1.363908887E0	-7.657032460E-2	7.891529083E0	8.008891418E0
1.765936524E0	1.323230863E0	-9.092725813E-2	7.781459332E0	7.893688429E0
1.767132357E0	1.282552958E0	-9.092725813E-2	7.695317745E0	7.801994941E0
1.768328191E0	1.246660590E0	-8.853443712E-2	7.630711555E0	7.732383838E0
1.769524024E0	1.217946768E0	-9.092725813E-2	7.580461979E0	7.678220231E0
1.770719857E0	1.196411371E0	-7.896314561E-2	7.546962738E0	7.641615138E0
1.771915691E0	1.172483087E0	-6.460621208E-2	7.518248558E0	7.609398921E0
1.773111524E0	1.160519004E0	-4.785645381E-2	7.479963779E0	7.569607172E0
1.774307305E0	1.162911773E0	-2.871387079E-2	7.429714203E0	7.520228814E0
1.775503139E0	1.167697430E0	-1.914258115E-2	7.372286797E0	7.464214382E0
1.776698972E0	1.170090318E0	-1.435693540E-2	7.317251682E0	7.410228718E0
1.777894805E0	1.167697430E0	-2.632104978E-2	7.252645493E0	7.346092616E0
1.779090639E0	1.141376376E0	-4.307080805E-2	7.171289444E0	7.261679380E0
1.780286472E0	1.105484009E0	-6.221338734E-2	7.089933395E0	7.175870745E0
1.781482305E0	1.088734269E0	-7.896314561E-2	7.022934437E0	7.107262876E0
1.782678139E0	1.071984529E0	-9.092725813E-2	6.953542709E0	7.036275635E0
1.783873972E0	1.050449133E0	-1.028913707E-1	6.874579430E0	6.955132806E0
1.785069753E0	1.045663476E0	-1.028913707E-1	6.802794933E0	6.883459715E0
1.786265587E0	1.031306505E0	-1.004985496E-1	6.740581512E0	6.819760420E0
1.787461420E0	1.002592683E0	-9.092725813E-2	6.675975323E0	6.751452167E0
1.788657253E0	9.762716293E-1	-8.135596663E-2	6.604190350E0	6.676455292E0
1.789853087E0	9.523434043E-1	-7.896314561E-2	6.537191391E0	6.606668178E0
1.791048920E0	9.164510965E-1	-7.417750359E-2	6.479763508E0	6.544671117E0
1.792244753E0	8.709874153E-1	-5.742774159E-2	6.434299946E0	6.493237468E0
1.793440587E0	8.327022791E-1	-4.067798331E-2	6.396014690E0	6.450120286E0
1.794636368E0	7.872386575E-1	-2.632104978E-2	6.350551128E0	6.399213790E0
1.795832201E0	7.369893789E-1	-4.785645287E-3	6.297909260E0	6.340886160E0
1.797028035E0	6.915257573E-1	2.392822690E-2	6.228517532E0	6.266834215E0
1.798223868E0	6.556333899E-1	5.024927482E-2	6.159125328E0	6.194126649E0
1.799419701E0	6.340979934E-1	8.135596663E-2	6.092126369E0	6.125577749E0
1.800615535E0	6.125625968E-1	1.196411327E-1	6.017949104E0	6.050227959E0
1.801811368E0	6.005984545E-1	1.627119333E-1	5.934200287E0	5.966735014E0
1.803007149E0	5.934200287E-1	1.962114573E-1	5.833701611E0	5.867087927E0
1.804202982E0	5.838487148E-1	2.297109663E-1	5.728417397E0	5.762674060E0
1.805398816E0	5.742774606E-1	2.919243574E-1	5.649454117E0	5.686065973E0
1.806594649E0	5.575276613E-1	3.804588020E-1	5.639883041E0	5.680129111E0
1.807790482E0	5.790630579E-1	5.072783828E-1	5.716453075E0	5.768056965E0
1.808986316E0	6.269195080E-1	6.293123364E-1	5.759523869E0	5.827621923E0
1.810182149E0	6.340979934E-1	6.699903607E-1	5.606383324E0	5.681769207E0
1.811377982E0	6.197410822E-1	6.221339107E-1	5.335994720E0	5.407769343E0
1.812573816E0	6.245267391E-1	5.144568682E-1	5.079962254E0	5.143998057E0
1.813769597E0	5.814558864E-1	5.359922647E-1	4.859822750E0	4.923744085E0
1.814965430E0	5.288137794E-1	5.886343718E-1	4.778466702E0	4.843539868E0
1.816161264E0	5.264210105E-1	5.264210105E-1	4.677968502E0	4.736837285E0
1.817357097E0	5.168496966E-1	4.881358147E-1	4.481756687E0	4.537791664E0
1.818552930E0	5.168496966E-1	5.264210105E-1	4.426722050E0	4.487774593E0
1.819748764E0	5.335994363E-1	6.149554253E-1	4.342973232E0	4.418632710E0
1.820944597E0	5.647061467E-1	6.795616150E-1	4.189832687E0	4.281984933E0
1.822140430E0	6.484549642E-1	7.776673436E-1	4.125226021E0	4.247675842E0
1.823336212E0	7.537391186E-1	9.044869542E-1	4.122833252E0	4.287653593E0
1.824532045E0	8.087740541E-1	9.882357717E-1	4.053441525E0	4.249836891E0
1.825727878E0	8.207381964E-1	1.033699393E0	3.897907972E0	4.115316778E0
1.826923712E0	8.470591903E-1	1.040877819E0	3.857230186E0	4.084012808E0
1.828119545E0	9.116654396E-1	1.012163997E0	3.842873096E0	4.077166107E0
1.829315378E0	9.667003751E-1	9.499505758E-1	3.780659676E0	4.016254884E0
1.830511212E0	1.002592683E0	8.733802438E-1	3.723232031E0	3.953535366E0
1.831707045E0	1.031306505E0	7.992027402E-1	3.646661758E0	3.873042745E0
1.832902826E0	1.086341500E0	7.561319470E-1	3.594019651E0	3.829993555E0
1.834098660E0	1.162911773E0	7.298108935E-1	3.560520172E0	3.816057079E0
1.835294493E0	1.244267821E0	6.987041831E-1	3.548556089E0	3.824740549E0
1.836490326E0	1.313659668E0	6.843472719E-1	3.536591768E0	3.834255371E0
1.837686160E0	1.373480201E0	6.771687865E-1	3.543770313E0	3.860480988E0
1.838881993E0	1.423729420E0	6.723831892E-1	3.543770313E0	3.877810290E0
1.840077826E0	1.473978758E0	6.795616150E-1	3.562912941E0	3.915196801E0
1.841273607E0	1.533799291E0	6.891329288E-1	3.605983734E0	3.978764023E0
1.842469441E0	1.600798368E0	6.604190469E-1	3.668197155E0	4.056399771E0
1.843665274E0	1.679761529E0	5.886343718E-1	3.737588882E0	4.139765678E0
1.844861107E0	1.727617979E0	5.216353536E-1	3.735196114E0	4.148307767E0
1.846056941E0	1.749153376E0	4.713860750E-1	3.694518089E0	4.114754704E0
1.847252774E0	1.777867198E0	4.450650215E-1	3.649054527E0	4.083441391E0
1.848448607E0	1.794616938E0	4.211367965E-1	3.598805189E0	4.043439742E0
1.849644441E0	1.801795483E0	3.732803464E-1	3.555734396E0	4.003629887E0
1.850840274E0	1.808973908E0	3.062812984E-1	3.536591768E0	3.984178230E0
1.852036107E0	1.804188251E0	2.488535494E-1	3.510270834E0	3.954620673E0
1.853231889E0	1.818545222E0	2.009970993E-1	3.495913982E0	3.945747221E0
1.854427722E0	1.842473388E0	1.387837082E-1	3.505485058E0	3.962624710E0
1.855623555E0	1.856830359E0	8.374879509E-2	3.524627686E0	3.984699884E0
1.856819389E0	1.883151412E0	4.067798331E-2	3.553341627E0	4.021709917E0
1.858015222E0	1.916650891E0	1.196411345E-2	3.567698479E0	4.049958792E0
1.859211055E0	1.952543259E0	-3.589234129E-2	3.603590965E0	4.098729228E0
1.860406837E0	1.993221283E0	-1.220339537E-1	3.696911097E0	4.201782363E0
1.861602670E0	2.036292076E0	-1.986042857E-1	3.775874138E0	4.294549404E0
1.862798503E0	2.076970100E0	-2.536391914E-1	3.821337700E0	4.356691343E0
1.863994337E0	2.112862349E0	-2.991028428E-1	3.852444410E0	4.403972951E0
1.865190170E0	2.151147604E0	-3.493520916E-1	3.869194269E0	4.440737235E0
1.866386003E0	2.194218397E0	-4.019941986E-1	3.883551121E0	4.478634057E0
1.867581837E0	2.232503414E0	-4.474578202E-1	3.876372576E0	4.495615013E0
1.868777670E0	2.280359983E0	-5.000999570E-1	3.883551121E0	4.531237240E0
1.869973451E0	2.335394859E0	-5.551348329E-1	3.902693748E0	4.581840495E0
1.871169285E0	2.388036966E0	-6.101697683E-1	3.917050600E0	4.627992340E0
1.872365118E0	2.447857618E0	-6.699903607E-1	3.931407690E0	4.679408128E0
1.873560951E0	2.502892494E0	-7.250252366E-1	3.945764542E0	4.728550544E0
1.874756785E0	2.562713146E0	-7.896314859E-1	3.957728624E0	4.780651882E0
1.875952618E0	2.634497643E0	-8.470591903E-1	3.981656790E0	4.848884190E0
1.877148451E0	2.699103832E0	-9.068797827E-1	4.010370731E0	4.918400740E0
1.878344285E0	2.739781857E0	-9.690931439E-1	4.034298897E0	4.972033159E0
1.879540118E0	2.773281336E0	-1.009771109E0	4.070191383E0	5.027642087E0
1.880735899E0	2.809173822E0	-1.043270707E0	4.125226021E0	5.098760737E0
1.881931732E0	2.833101988E0	-1.081555843E0	4.180261135E0	5.164379253E0
1.883127566E0	2.857030153E0	-1.119840980E0	4.242474556E0	5.235957933E0
1.884323399E0	2.873780012E0	-1.146162033E0	4.314259052E0	5.308966955E0
1.885519232E0	2.868994236E0	-1.165304661E0	4.400400639E0	5.380760974E0
1.886715066E0	2.864208698E0	-1.201196909E0	4.496113777E0	5.464577255E0
1.887910899E0	2.847458839E0	-1.244267821E0	4.599005222E0	5.550411993E0
1.889106680E0	2.813959360E0	-1.294517040E0	4.699503899E0	5.628452589E0
1.890302514E0	2.773281336E0	-1.361516118E0	4.819144726E0	5.724418870E0
1.891498347E0	2.732603550E0	-1.435693622E0	4.953142643E0	5.836262535E0
1.892694180E0	2.689532757E0	-1.512263894E0	5.079962254E0	5.943613802E0
1.893890014E0	2.658426046E0	-1.588834286E0	5.194818020E0	6.047954835E0
1.895085847E0	2.624926329E0	-1.660618901E0	5.300102234E0	6.143205764E0
1.896281680E0	2.581855536E0	-1.710868239E0	5.429314613E0	6.250640392E0
1.897477514E0	2.533999205E0	-1.730010748E0	5.577669621E0	6.365884664E0
1.898673295E0	2.490928411E0	-1.727617979E0	5.726024628E0	6.478946386E0
1.899869128E0	2.455035925E0	-1.722832322E0	5.895915031E0	6.614920004E0
1.901064962E0	2.416750908E0	-1.732403636E0	6.075376511E0	6.764030385E0
1.902260795E0	2.376072884E0	-1.744367719E0	6.226124287E0	6.888625750E0
1.903456628E0	2.323430777E0	-1.751546144E0	6.350551128E0	6.985395057E0
1.904652462E0	2.268395901E0	-1.758724689E0	6.446264267E0	7.056419453E0
1.905848295E0	2.210968018E0	-1.756331801E0	6.520441532E0	7.105578002E0
1.907044128E0	2.134397745E0	-1.761117458E0	6.613761902E0	7.169312026E0
1.908239910E0	2.045863390E0	-1.770688772E0	6.711867332E0	7.236716025E0
1.909435743E0	1.938186288E0	-1.763510346E0	6.793223381E0	7.281100105E0
1.910631576E0	1.816152334E0	-1.737189293E0	6.881757736E0	7.326310496E0
1.911827410E0	1.694118381E0	-1.691725612E0	6.963113785E0	7.363214394E0
1.913023243E0	1.555334687E0	-1.631905079E0	7.034898758E0	7.387285070E0
1.914219076E0	1.399801254E0	-1.560120344E0	7.116254330E0	7.418523756E0
1.915414910E0	1.239482164E0	-1.452443361E0	7.204789162E0	7.453515588E0
1.916610691E0	1.083948612E0	-1.306481123E0	7.257431030E0	7.453330979E0
1.917806524E0	9.260223508E-1	-1.143769264E0	7.326822758E0	7.473155776E0
1.919002357E0	7.585247755E-1	-9.714859724E-1	7.429714203E0	7.531254740E0
1.920198191E0	6.053841114E-1	-7.776673436E-1	7.523034573E0	7.587312146E0
1.921394024E0	4.689932466E-1	-5.766702294E-1	7.613961697E0	7.650157903E0
1.922589857E0	3.493520916E-1	-3.708875179E-1	7.704888821E0	7.721717178E0
1.923785691E0	2.871387303E-1	-1.674975902E-1	7.774280548E0	7.781384333E0
1.924981524E0	2.608176768E-1	1.914258115E-2	7.826922894E0	7.831290716E0
1.926177305E0	2.560320199E-1	1.722832322E-1	7.884350777E0	7.890387891E0
1.927373139E0	3.086741269E-1	2.727817893E-1	7.922635555E0	7.933337492E0
1.928568972E0	4.115654826E-1	3.062812984E-1	7.956135273E0	7.972658456E0
1.929764805E0	5.503492355E-1	2.368894368E-1	7.929814339E0	7.952418269E0
1.930960639E0	7.130611539E-1	1.363908947E-1	7.913064480E0	7.946297764E0
1.932156472E0	8.542376757E-1	6.460621208E-2	7.972885132E0	8.018777544E0
1.933352305E0	9.690931439E-1	2.392822690E-2	8.087740898E0	8.145628700E0
1.934548087E0	1.062413216E0	5.024927482E-2	8.228917122E0	8.297368488E0
1.935743920E0	1.129412293E0	1.028913707E-1	8.358129501E0	8.434719173E0
1.936939753E0	1.182054400E0	1.459621787E-1	8.506484032E0	8.589460294E0
1.938135587E0	1.208375454E0	2.177468538E-1	8.669196129E0	8.755715074E0
1.939331420E0	1.208375454E0	3.254238665E-1	8.812766075E0	8.901175081E0
1.940527253E0	1.184447169E0	4.522434771E-1	8.951549530E0	9.040889240E0
1.941723087E0	1.153340459E0	5.862415433E-1	9.121439934E0	9.212737912E0
1.942918920E0	1.138983607E0	6.963114142E-1	9.312865257E0	9.408059978E0
1.944114701E0	1.138983607E0	7.896314859E-1	9.513862610E0	9.614280176E0
1.945310535E0	1.153340459E0	8.494520187E-1	9.743574142E0	9.848299346E0
1.946506368E0	1.174875975E0	8.709874153E-1	9.985248566E0	1.009178585E1
1.947702201E0	1.213161111E0	8.566305041E-1	1.024845982E1	1.035550599E1
1.948898035E0	1.263410330E0	8.063812256E-1	1.055952644E1	1.066536708E1
1.950093868E0	1.311266780E0	7.274180651E-1	1.091605663E1	1.101856842E1
1.951289701E0	1.349551916E0	6.269195080E-1	1.130848026E1	1.140596529E1
1.952485535E0	1.373480201E0	5.455635786E-1	1.173200989E1	1.182472594E1
1.953681368E0	1.380658627E0	4.737788737E-1	1.217468166E1	1.226187417E1
1.954877149E0	1.368694544E0	4.019941986E-1	1.263171101E1	1.271200405E1
1.956072982E0	1.335195065E0	3.445664644E-1	1.311266804E1	1.318497383E1
1.957268816E0	1.289731383E0	3.038884699E-1	1.359123230E1	1.365567101E1
1.958464649E0	1.241874933E0	2.751746178E-1	1.406261826E1	1.412002856E1
1.959660482E0	1.184447169E0	2.799602449E-1	1.452682590E1	1.457772149E1
1.960856316E0	1.115055323E0	3.062812984E-1	1.498624802E1	1.503079460E1
1.962052149E0	1.038485050E0	3.254238665E-1	1.544088459E1	1.547918825E1
1.963247930E0	9.595218897E-1	3.469592929E-1	1.589073563E1	1.592345885E1
1.964443764E0	8.733802438E-1	3.517449200E-1	1.632144356E1	1.634857906E1
1.965639597E0	8.039883971E-1	3.206382394E-1	1.672822380E1	1.675060231E1
1.966835430E0	7.633104324E-1	2.536391914E-1	1.710868263E1	1.712758001E1
1.968031264E0	7.369893789E-1	1.531406492E-1	1.748674774E1	1.750294124E1
1.969227097E0	7.058826685E-1	5.024927482E-2	1.785524178E1	1.786926003E1
1.970422930E0	6.723831892E-1	-3.110669367E-2	1.821655846E1	1.822898979E1
1.971618712E0	6.364908218E-1	-9.571290761E-2	1.857069588E1	1.858184670E1
1.972814545E0	6.005984545E-1	-1.507478207E-1	1.891765594E1	1.892778777E1
1.974010378E0	5.694918036E-1	-1.938186288E-1	1.925265121E1	1.926204728E1
1.975206212E0	5.335994363E-1	-2.249253243E-1	1.958046722E1	1.958902796E1
1.976402045E0	4.905286431E-1	-2.512463629E-1	1.989871216E1	1.990634292E1
1.977597878E0	4.426721931E-1	-2.679961324E-1	2.021217346E1	2.021879662E1
1.978793712E0	3.756731451E-1	-2.703889608E-1	2.049931145E1	2.050453633E1
1.979989545E0	2.919243574E-1	-2.225325108E-1	2.075534439E1	2.075859006E1
1.981185326E0	2.177468538E-1	-1.746760458E-1	2.099701881E1	2.099887436E1
1.982381160E0	1.722832322E-1	-1.914258152E-1	2.118605232E1	2.118761757E1
1.983576993E0	1.483550072E-1	-2.440679073E-1	2.129851341E1	2.130042844E1
1.984772826E0	1.292124242E-1	-3.349951804E-1	2.134158516E1	2.134460528E1
1.985968660E0	1.172483116E-1	-4.259224236E-1	2.132004929E1	2.132462564E1
1.987164493E0	1.220339537E-1	-4.977070987E-1	2.125544357E1	2.126162003E1
1.988360326E0	1.268195957E-1	-5.575276613E-1	2.117648125E1	2.118419879E1
1.989556160E0	1.316052526E-1	-5.790630579E-1	2.110708809E1	2.111543989E1
1.990751941E0	1.411765367E-1	-5.479564071E-1	2.103530312E1	2.104291245E1
1.991947774E0	1.459621787E-1	-4.713860750E-1	2.095394707E1	2.095975686E1
1.993143607E0	1.579262912E-1	-3.661018610E-1	2.085344887E1	2.085726015E1
1.994339441E0	1.842473447E-1	-2.512463629E-1	2.072662926E1	2.072897084E1
1.995535274E0	2.249253243E-1	-1.483550072E-1	2.057827568E1	2.058003962E1
1.996731107E0	2.823530734E-1	-4.307080805E-2	2.041316986E1	2.041516794E1
1.997926941E0	3.517449200E-1	7.657032460E-2	2.024806595E1	2.025126569E1
1.999122774E0	4.307080805E-1	1.890329868E-1	2.006142426E1	2.006693764E1
2.000318555E0	5.312066078E-1	3.014956415E-1	1.985085678E1	1.986025164E1
2.001514389E0	6.508477330E-1	4.211367965E-1	1.962353897E1	1.963884520E1
2.002710222E0	7.800601721E-1	5.240281820E-1	1.936989975E1	1.939268201E1
2.003906055E0	9.260223508E-1	6.077769399E-1	1.910190392E1	1.913399183E1
2.005101889E0	1.083948612E0	6.843472719E-1	1.883151436E1	1.887509494E1
2.006297722E0	1.263410330E0	7.657032609E-1	1.856112480E1	1.861982441E1
2.007493503E0	1.452443361E0	8.494520187E-1	1.829552269E1	1.837273281E1
2.008689337E0	1.643869162E0	9.475577474E-1	1.803709793E1	1.813662243E1
2.009885170E0	1.828116536E0	1.043270707E0	1.774038696E1	1.786481887E1
2.011081003E0	1.990828395E0	1.141376376E0	1.748914146E1	1.763905346E1
2.012276837E0	2.153540373E0	1.241874933E0	1.731446457E1	1.749201740E1
2.013472670E0	2.316252232E0	1.342373490E0	1.716610909E1	1.737360907E1
2.014668503E0	2.478964329E0	1.428515077E0	1.706321907E1	1.730142666E1
2.015864337E0	2.622533560E0	1.507478237E0	1.698664856E1	1.725388079E1
2.017060170E0	2.749353170E0	1.593619823E0	1.692204094E1	1.721784065E1
2.018256003E0	2.873780012E0	1.670190215E0	1.687418556E1	1.719843846E1
2.019451785E0	2.988635540E0	1.727617979E0	1.683350754E1	1.718381745E1
2.020647618E0	3.101098061E0	1.763510346E0	1.679761505E1	1.717226395E1
2.021843451E0	3.223132133E0	1.808973908E0	1.676172256E1	1.716439078E1
2.023039285E0	3.345165968E0	1.849651933E0	1.672583008E1	1.715706092E1
2.024235118E0	3.460021496E0	1.880758643E0	1.669233131E1	1.715059552E1
2.025430951E0	3.570091486E0	1.923829436E0	1.666840172E1	1.715465793E1
2.026626732E0	3.692125320E0	1.959721804E0	1.664925957E1	1.716595884E1
