"Time (s)"	"Acceleration x (m/s^2)"	"Acceleration y (m/s^2)"	"Acceleration z (m/s^2)"	"Absolute acceleration (m/s^2)"
3.732203200E-2	7.896314859E-1	2.392822690E-2	9.987641335E0	1.001883575E1
3.851802200E-2	7.968099117E-1	0.000000000E0	9.999606133E0	1.003130245E1
3.971395900E-2	7.992027402E-1	-7.178467698E-3	1.002831936E1	1.006011758E1
4.090994900E-2	8.039883971E-1	-2.392822644E-3	1.005942631E1	1.009150438E1
4.210593900E-2	8.135597110E-1	0.000000000E0	1.007139015E1	1.010419611E1
4.330187600E-2	8.063812256E-1	0.000000000E0	1.008335495E1	1.011554733E1
4.449786600E-2	7.992027402E-1	7.178467698E-3	1.010249710E1	1.013406257E1
4.569380300E-2	7.992027402E-1	2.632104978E-2	1.011446095E1	1.014602080E1
4.688979300E-2	7.896314859E-1	5.024927482E-2	1.011446095E1	1.014536165E1
4.808578200E-2	7.800601721E-1	7.178468257E-2	1.011446095E1	1.014475072E1
4.928172000E-2	7.800601721E-1	9.332008660E-2	1.011206818E1	1.014254038E1
5.047770900E-2	7.944171429E-1	9.332008660E-2	1.010967541E1	1.014126935E1
5.167369900E-2	8.087740541E-1	1.004985496E-1	1.010728264E1	1.014008766E1
5.286963700E-2	8.231309652E-1	1.172483116E-1	1.010488987E1	1.013903797E1
5.406562600E-2	8.327022791E-1	1.268195957E-1	1.010488987E1	1.013993469E1
5.526156400E-2	8.422735929E-1	1.316052526E-1	1.010010433E1	1.013601757E1
5.645755300E-2	8.662018180E-1	1.339980662E-1	1.009771156E1	1.013568152E1
5.765354300E-2	8.805587292E-1	1.387837082E-1	1.010010433E1	1.013936646E1
5.884948000E-2	8.925228715E-1	1.483550072E-1	1.010010433E1	1.014054800E1
6.004547000E-2	9.044869542E-1	1.555334777E-1	1.009531879E1	1.013694968E1
6.124145900E-2	9.116654396E-1	1.627119333E-1	1.009053326E1	1.013293987E1
6.243739700E-2	9.140582681E-1	1.674975902E-1	1.008335495E1	1.012608537E1
6.363338700E-2	9.236295223E-1	1.794617027E-1	1.007856941E1	1.012239396E1
6.482937600E-2	9.212366939E-1	2.009970993E-1	1.006421185E1	1.010828556E1
6.602531400E-2	9.068797827E-1	2.177468538E-1	1.004506969E1	1.008827388E1
6.722130300E-2	8.949156404E-1	2.249253243E-1	1.002831936E1	1.007068292E1
6.841724100E-2	8.853443861E-1	2.273181528E-1	1.001396275E1	1.005559337E1
6.961323000E-2	8.781659007E-1	2.368894368E-1	1.000199890E1	1.004327008E1
7.080922000E-2	8.757730722E-1	2.560320199E-1	9.990034103E0	1.003161564E1
7.200515700E-2	8.685946465E-1	2.751746178E-1	9.990034103E0	1.003149835E1
7.320114700E-2	8.662018180E-1	2.967100143E-1	9.994820595E0	1.003667182E1
7.439713700E-2	8.805587292E-1	3.182454109E-1	9.992427826E0	1.003619837E1
7.559307400E-2	8.757730722E-1	3.349951804E-1	9.990034103E0	1.003394148E1
7.678906400E-2	8.542376757E-1	3.565305769E-1	9.990034103E0	1.003282699E1
7.798505300E-2	8.446664214E-1	3.852444589E-1	9.990034103E0	1.003307809E1
7.918099100E-2	8.446664214E-1	4.043870270E-1	9.982855797E0	1.002668440E1
8.037698000E-2	8.422735929E-1	4.283152521E-1	9.982855797E0	1.002747668E1
8.157291800E-2	8.303094506E-1	4.498506486E-1	9.975677490E0	1.002027548E1
8.276890700E-2	8.207381964E-1	4.594219327E-1	9.946963310E0	9.991334185E0
8.396489700E-2	8.183453679E-1	4.785645306E-1	9.925428391E0	9.970598873E0
8.516083400E-2	8.207381964E-1	5.048855543E-1	9.920642853E0	9.967330396E0
8.635682400E-2	8.255237937E-1	5.264210105E-1	9.911071777E0	9.959314855E0
8.755281400E-2	8.255237937E-1	5.503492355E-1	9.896714211E0	9.946322234E0
8.874875100E-2	8.279166222E-1	5.670989752E-1	9.884750366E0	9.935559218E0
8.994474100E-2	8.398807645E-1	5.718846321E-1	9.894321442E0	9.946358556E0
9.114067800E-2	8.446664214E-1	5.862415433E-1	9.913464546E0	9.966640348E0
9.233666800E-2	8.398807645E-1	5.910272002E-1	9.925428391E0	9.978418792E0
9.353265700E-2	8.303094506E-1	5.838487148E-1	9.927821159E0	9.979575446E0
9.472859500E-2	8.207381964E-1	5.766702294E-1	9.937392235E0	9.987888874E0
9.592458400E-2	8.159525394E-1	5.742774606E-1	9.956535339E0	1.000640640E1
9.712057400E-2	8.135597110E-1	5.766702294E-1	9.966106415E0	1.001587265E1
9.831651200E-2	8.111668825E-1	5.742774606E-1	9.970891953E0	1.002030302E1
9.951250100E-2	8.183453679E-1	5.479564071E-1	9.975677490E0	1.002417512E1
1.007084390E-1	8.207381964E-1	5.144568682E-1	9.982855797E0	1.002974012E1
1.019044280E-1	8.350951076E-1	5.120640397E-1	9.982855797E0	1.003080272E1
1.031004180E-1	8.614161611E-1	5.144568682E-1	9.978070259E0	1.002838919E1
1.042963550E-1	8.781659007E-1	5.024927258E-1	9.968499184E0	1.001971308E1
1.054923450E-1	8.829515576E-1	4.857429862E-1	9.939785004E0	9.990739493E0
1.066883340E-1	8.901300430E-1	4.737788737E-1	9.915857315E0	9.966996750E0
1.078842720E-1	8.949156404E-1	4.642075896E-1	9.901499748E0	9.952691091E0
1.090802620E-1	8.901300430E-1	4.594219327E-1	9.884750366E0	9.935375675E0
1.102761990E-1	8.829515576E-1	4.642075896E-1	9.877572060E0	9.927815567E0
1.114721890E-1	8.877372146E-1	4.689932466E-1	9.868000984E0	9.918945279E0
1.126681780E-1	8.925228715E-1	4.713860750E-1	9.844072342E0	9.895684018E0
1.138641160E-1	8.805587292E-1	4.713860750E-1	9.822537422E0	9.873187424E0
1.150601050E-1	8.542376757E-1	4.785645306E-1	9.801001549E0	9.849790727E0
1.162560950E-1	8.303094506E-1	4.953143001E-1	9.781859398E0	9.829523046E0
1.174520320E-1	8.255237937E-1	4.929214716E-1	9.765109062E0	9.812329800E0
1.186480220E-1	8.159525394E-1	4.713860750E-1	9.750752449E0	9.796180720E0
1.198440120E-1	8.111668825E-1	4.570291340E-1	9.734002113E0	9.778428528E0
1.210399490E-1	8.087740541E-1	4.426721931E-1	9.722038269E0	9.765659335E0
1.222359390E-1	8.135597110E-1	4.187439680E-1	9.712467194E0	9.755472562E0
1.234318760E-1	8.183453679E-1	3.996013701E-1	9.705288887E0	9.747922998E0
1.246278660E-1	8.279166222E-1	3.804588020E-1	9.695717812E0	9.738436153E0
1.258238550E-1	8.518448472E-1	3.445664644E-1	9.683753014E0	9.727252342E0
1.270197930E-1	8.638089895E-1	3.182454109E-1	9.678967476E0	9.722646631E0
1.282157820E-1	8.614161611E-1	2.919243574E-1	9.676574707E0	9.719226085E0
1.294117720E-1	8.638089895E-1	2.608176768E-1	9.678967476E0	9.720936335E0
1.306077090E-1	8.685946465E-1	2.416750938E-1	9.686145782E0	9.728015400E0
1.318036990E-1	8.781659007E-1	2.273181528E-1	9.693324089E0	9.735675672E0
1.329996370E-1	9.020941257E-1	2.081755698E-1	9.710074425E0	9.754109709E0
1.341956260E-1	9.164510965E-1	1.890329868E-1	9.722038269E0	9.766966990E0
1.353916160E-1	9.284151793E-1	1.651047617E-1	9.722038269E0	9.767663100E0
1.365875530E-1	9.475577474E-1	1.507478207E-1	9.722038269E0	9.769269097E0
1.377835430E-1	9.547362328E-1	1.411765367E-1	9.726823807E0	9.774587125E0
1.389795320E-1	9.690931439E-1	1.268195957E-1	9.731609344E0	9.780564665E0
1.401754700E-1	9.954141974E-1	1.172483116E-1	9.729216576E0	9.780708142E0
1.413714590E-1	9.978070259E-1	1.100698411E-1	9.686145782E0	9.738026204E0
1.425673970E-1	9.643075466E-1	1.148554832E-1	9.628718376E0	9.677566760E0
1.437633870E-1	9.236295223E-1	1.292124242E-1	9.614361763E0	9.659489606E0
1.449593760E-1	8.949156404E-1	1.531406492E-1	9.621540070E0	9.664282662E0
1.461553140E-1	8.709874153E-1	1.770688742E-1	9.643074989E0	9.683948973E0
1.473513030E-1	8.494520187E-1	1.986042857E-1	9.669396400E0	9.708668248E0
1.485472930E-1	8.374879360E-1	2.105683982E-1	9.693324089E0	9.731713980E0
1.497432300E-1	8.303094506E-1	2.249253243E-1	9.707681656E0	9.745721539E0
1.509392200E-1	8.327022791E-1	2.321037948E-1	9.707681656E0	9.746094007E0
1.521352090E-1	8.566305041E-1	2.273181528E-1	9.710074425E0	9.750437667E0
1.533311470E-1	8.925228715E-1	2.249253243E-1	9.712467194E0	9.755983162E0
1.545271370E-1	9.116654396E-1	2.249253243E-1	9.717252731E0	9.762516372E0
1.557230740E-1	9.284151793E-1	2.273181528E-1	9.724431038E0	9.771294044E0
1.569190640E-1	9.379864931E-1	2.201396823E-1	9.738788605E0	9.786331469E0
1.581150530E-1	9.355936646E-1	2.081755698E-1	9.757930756E0	9.804890882E0
1.593109910E-1	9.451649189E-1	2.009970993E-1	9.784252167E0	9.831852675E0
1.605069800E-1	9.595218897E-1	2.009970993E-1	9.815358162E0	9.864194743E0
1.617029700E-1	9.786644578E-1	2.153540403E-1	9.834501266E0	9.885422431E0
1.628989070E-1	9.762716293E-1	2.249253243E-1	9.851250648E0	9.902062262E0
1.640948970E-1	9.643075466E-1	2.297109663E-1	9.856036186E0	9.905761227E0
1.652908340E-1	9.547362328E-1	2.344966233E-1	9.853643417E0	9.902565250E0
1.664868240E-1	9.355936646E-1	2.392822653E-1	9.856036186E0	9.903233856E0
1.676828140E-1	9.212366939E-1	2.392822653E-1	9.865608215E0	9.911415565E0
1.688787510E-1	9.164510965E-1	2.321037948E-1	9.868000984E0	9.913183051E0
1.700747410E-1	9.116654396E-1	2.297109663E-1	9.870393753E0	9.915068020E0
1.712707300E-1	9.020941257E-1	2.225325108E-1	9.872786522E0	9.916411056E0
1.724666680E-1	8.853443861E-1	2.105683982E-1	9.879964828E0	9.921788082E0
1.736626570E-1	8.685946465E-1	2.033899277E-1	9.887143135E0	9.927306961E0
1.748585950E-1	8.638089895E-1	2.081755698E-1	9.894321442E0	9.934138102E0
1.760545840E-1	8.614161611E-1	2.105683982E-1	9.901499748E0	9.941130425E0
1.772505740E-1	8.590233326E-1	2.057827413E-1	9.901499748E0	9.940823149E0
1.784465120E-1	8.542376757E-1	2.057827413E-1	9.896714211E0	9.935643950E0
1.796425010E-1	8.374879360E-1	2.177468538E-1	9.903892517E0	9.941623948E0
1.808384910E-1	8.279166222E-1	2.344966233E-1	9.918250084E0	9.955506985E0
1.820344280E-1	8.279166222E-1	2.416750938E-1	9.923035622E0	9.960446212E0
1.832304180E-1	8.327022791E-1	2.488535494E-1	9.918250084E0	9.956254612E0
1.844264070E-1	8.303094506E-1	2.584248483E-1	9.913464546E0	9.951531364E0
1.856223450E-1	8.279166222E-1	2.703889608E-1	9.906285286E0	9.944498192E0
1.868183340E-1	8.518448472E-1	2.823530734E-1	9.894321442E0	9.934936321E0
1.880142720E-1	8.709874153E-1	2.991028428E-1	9.887143135E0	9.929938618E0
1.892102620E-1	8.829515576E-1	3.134597540E-1	9.882357597E0	9.926673771E0
1.904062510E-1	8.973084688E-1	3.134597540E-1	9.879964828E0	9.925579304E0
1.916021890E-1	9.020941257E-1	3.110669553E-1	9.879964828E0	9.925937813E0
1.927981780E-1	9.020941257E-1	3.110669553E-1	9.877572060E0	9.923556130E0
1.939941680E-1	9.020941257E-1	3.062812984E-1	9.875179291E0	9.921025555E0
1.951901050E-1	9.068797827E-1	3.062812984E-1	9.872786522E0	9.919080244E0
1.963860950E-1	9.116654396E-1	3.062812984E-1	9.875179291E0	9.921900429E0
1.975820320E-1	9.020941257E-1	2.967100143E-1	9.884750366E0	9.930261852E0
1.987780220E-1	8.997012973E-1	2.967100143E-1	9.896714211E0	9.941954105E0
1.999740120E-1	8.901300430E-1	3.038884699E-1	9.884750366E0	9.929399252E0
2.011699490E-1	8.685946465E-1	2.919243574E-1	9.877572060E0	9.919985196E0
2.023659390E-1	8.566305041E-1	2.751746178E-1	9.870393753E0	9.911317255E0
2.035619280E-1	8.398807645E-1	2.632105052E-1	9.851250648E0	9.890491333E0
2.047578660E-1	8.231309652E-1	2.656033039E-1	9.832108498E0	9.870078379E0
2.059538550E-1	8.159525394E-1	2.656033039E-1	9.810572624E0	9.848028172E0
2.071498450E-1	8.183453679E-1	2.608176768E-1	9.791430473E0	9.829029744E0
2.083457820E-1	8.159525394E-1	2.584248483E-1	9.774680138E0	9.812081010E0
2.095417720E-1	8.111668825E-1	2.512463629E-1	9.755537987E0	9.792427577E0
2.107377090E-1	8.111668825E-1	2.416750938E-1	9.743574142E0	9.780267667E0
2.119336990E-1	8.135597110E-1	2.297109663E-1	9.734002113E0	9.770641927E0
2.131296890E-1	8.135597110E-1	2.105683982E-1	9.712467194E0	9.748755687E0
2.143256260E-1	8.207381964E-1	1.890329868E-1	9.688538551E0	9.725077065E0
2.155216160E-1	8.422735929E-1	1.770688742E-1	9.676574707E0	9.714776181E0
2.167176050E-1	8.518448472E-1	1.698904037E-1	9.669396400E0	9.708332974E0
2.179135430E-1	8.614161611E-1	1.722832322E-1	9.650253296E0	9.690155210E0
2.191095320E-1	8.638089895E-1	1.698904037E-1	9.633503914E0	9.673645971E0
2.203054700E-1	8.566305041E-1	1.507478207E-1	9.631111145E0	9.670307266E0
2.215014590E-1	8.518448472E-1	1.411765367E-1	9.645467758E0	9.684039381E0
2.226974490E-1	8.518448472E-1	1.316052526E-1	9.667003632E0	9.705355161E0
2.238933870E-1	8.685946465E-1	1.172483116E-1	9.681360245E0	9.720953658E0
2.250893760E-1	8.853443861E-1	1.052841991E-1	9.686145782E0	9.727093069E0
2.262853660E-1	8.973084688E-1	9.810572863E-2	9.695717812E0	9.737645049E0
2.274813030E-1	9.044869542E-1	8.614161611E-2	9.712467194E0	9.754872424E0
2.286772930E-1	9.068797827E-1	6.460621208E-2	9.724431038E0	9.766840017E0
2.298732300E-1	8.973084688E-1	4.307080805E-2	9.729216576E0	9.770602477E0
2.310692200E-1	8.853443861E-1	3.349951655E-2	9.731609344E0	9.771856391E0
2.322652090E-1	8.805587292E-1	3.589234129E-2	9.726823807E0	9.766666438E0
2.334611470E-1	8.853443861E-1	4.307080805E-2	9.717252731E0	9.757596549E0
2.346571370E-1	8.853443861E-1	4.307080805E-2	9.710074425E0	9.750447944E0
2.358531260E-1	8.805587292E-1	2.632104978E-2	9.702896118E0	9.742806041E0
2.370490640E-1	8.781659007E-1	1.435693540E-2	9.693324089E0	9.733032075E0
2.382450530E-1	8.685946465E-1	1.674975827E-2	9.690931320E0	9.729793783E0
2.394409910E-1	8.685946465E-1	1.196411345E-2	9.686145782E0	9.725020304E0
2.406369800E-1	8.805587292E-1	0.000000000E0	9.683753014E0	9.723705883E0
2.418329700E-1	8.997012973E-1	-7.178467698E-3	9.674181938E0	9.715930739E0
2.430289070E-1	9.140582681E-1	-9.571290575E-3	9.671789169E0	9.714890625E0
2.442248970E-1	9.260223508E-1	4.785645287E-3	9.667003632E0	9.711256330E0
2.454208870E-1	9.379864931E-1	2.632104978E-2	9.650253296E0	9.695767125E0
2.466168240E-1	9.451649189E-1	3.589234129E-2	9.633503914E0	9.679825548E0
2.478128140E-1	9.427721500E-1	4.307080805E-2	9.614361763E0	9.660570715E0
2.490087510E-1	9.379864931E-1	5.503492057E-2	9.600004196E0	9.645876221E0
2.502047410E-1	9.355936646E-1	6.939185411E-2	9.588040352E0	9.633829380E0
2.514007300E-1	9.332008362E-1	7.178468257E-2	9.585647583E0	9.631233380E0
2.525966680E-1	9.403793216E-1	7.417750359E-2	9.588040352E0	9.634330976E0
2.537926570E-1	9.403793216E-1	7.657032460E-2	9.592825890E0	9.639112243E0
2.549886470E-1	9.308080077E-1	8.614161611E-2	9.600004196E0	9.645408467E0
2.561845840E-1	9.308080077E-1	9.092725813E-2	9.604789734E0	9.650215394E0
2.573805740E-1	9.260223508E-1	8.853443712E-2	9.602396965E0	9.647351098E0
2.585765640E-1	9.116654396E-1	8.374879509E-2	9.597611427E0	9.641176943E0
2.597725010E-1	8.973084688E-1	8.374879509E-2	9.602396965E0	9.644594539E0
2.609684910E-1	8.877372146E-1	9.092725813E-2	9.609575272E0	9.650921305E0
2.621644280E-1	8.877372146E-1	1.028913707E-1	9.611968994E0	9.653424881E0
2.633604180E-1	8.829515576E-1	1.100698411E-1	9.616754532E0	9.657830323E0
2.645564070E-1	8.829515576E-1	1.124626622E-1	9.638289452E0	9.679301362E0
2.657523450E-1	8.853443861E-1	1.124626622E-1	9.650253296E0	9.691432877E0
2.669483340E-1	8.829515576E-1	1.172483116E-1	9.655039787E0	9.696037537E0
2.681442720E-1	8.805587292E-1	1.220339537E-1	9.669396400E0	9.710175215E0
2.693402620E-1	8.757730722E-1	1.268195957E-1	9.681360245E0	9.721717846E0
2.705362510E-1	8.805587292E-1	1.387837082E-1	9.681360245E0	9.722313551E0
2.717322410E-1	8.829515576E-1	1.507478207E-1	9.676574707E0	9.717943528E0
2.729281780E-1	8.973084688E-1	1.603191197E-1	9.681360245E0	9.724176104E0
2.741241680E-1	9.116654396E-1	1.627119333E-1	9.690931320E0	9.735078782E0
2.753201050E-1	9.092726111E-1	1.603191197E-1	9.700503349E0	9.744344212E0
2.765160950E-1	8.997012973E-1	1.627119333E-1	9.717252731E0	9.760171015E0
2.777120840E-1	8.997012973E-1	1.770688742E-1	9.736394882E0	9.779478571E0
2.789080220E-1	9.140582681E-1	1.890329868E-1	9.745966911E0	9.790562140E0
2.801040120E-1	9.212366939E-1	2.009970993E-1	9.755537987E0	9.800999862E0
2.813000010E-1	9.427721500E-1	2.033899277E-1	9.769894600E0	9.817383933E0
2.824959390E-1	9.499505758E-1	1.962114573E-1	9.796216011E0	9.844122773E0
2.836919280E-1	9.355936646E-1	1.818545163E-1	9.817750931E0	9.863905915E0
2.848878660E-1	9.355936646E-1	1.722832322E-1	9.839286804E0	9.885169793E0
2.860838550E-1	9.379864931E-1	1.722832322E-1	9.858428955E0	9.904449588E0
2.872798450E-1	9.355936646E-1	1.674975902E-1	9.870393753E0	9.916050816E0
2.884757820E-1	9.164510965E-1	1.531406492E-1	9.882357597E0	9.925942089E0
2.896717720E-1	8.925228715E-1	1.507478207E-1	9.891928673E0	9.933256004E0
2.908677620E-1	8.949156404E-1	1.555334777E-1	9.901499748E0	9.943076080E0
2.920636990E-1	8.925228715E-1	1.435693651E-1	9.901499748E0	9.942681052E0
2.932596890E-1	8.781659007E-1	1.435693651E-1	9.891928673E0	9.931869934E0
2.944556260E-1	8.662018180E-1	1.555334777E-1	9.894321442E0	9.933382759E0
2.956516160E-1	8.662018180E-1	1.555334777E-1	9.903892517E0	9.942916234E0
2.968476050E-1	8.590233326E-1	1.435693651E-1	9.913464546E0	9.951648736E0
2.980435430E-1	8.470591903E-1	1.316052526E-1	9.930213928E0	9.967144921E0
2.992395320E-1	8.470591903E-1	1.292124242E-1	9.946963310E0	9.983801091E0
3.004355220E-1	8.542376757E-1	1.387837082E-1	9.951749802E0	9.989309638E0
3.016314590E-1	8.590233326E-1	1.531406492E-1	9.963713646E0	1.000184797E1
3.028274490E-1	8.709874153E-1	1.627119333E-1	9.982855797E0	1.002210078E1
3.040234390E-1	8.829515576E-1	1.674975902E-1	1.000439167E1	1.004467578E1
3.052193760E-1	8.949156404E-1	1.627119333E-1	1.002592659E1	1.006710252E1
3.064153660E-1	9.068797827E-1	1.627119333E-1	1.004506969E1	1.008723606E1
3.076113030E-1	9.020941257E-1	1.698904037E-1	1.005703354E1	1.009883955E1
3.088072930E-1	9.020941257E-1	1.698904037E-1	1.006899738E1	1.011075392E1
3.100032820E-1	9.188438654E-1	1.627119333E-1	1.007617569E1	1.011929176E1
3.111992200E-1	9.451649189E-1	1.555334777E-1	1.007856941E1	1.012398582E1
3.123952090E-1	9.571290612E-1	1.507478207E-1	1.007617569E1	1.012265467E1
3.135911990E-1	9.427721500E-1	1.483550072E-1	1.006421185E1	1.010936143E1
3.147871370E-1	9.284151793E-1	1.531406492E-1	1.005703354E1	1.010095691E1
3.159831260E-1	9.164510965E-1	1.674975902E-1	1.005224800E1	1.009532703E1
3.171790640E-1	8.925228715E-1	1.842473447E-1	1.003310490E1	1.007441006E1
3.183750530E-1	8.662018180E-1	1.962114573E-1	1.000678444E1	1.004612061E1
3.195710430E-1	8.494520187E-1	2.129612118E-1	9.982855797E0	1.002119409E1
3.207669800E-1	8.279166222E-1	2.368894368E-1	9.963713646E0	1.000085757E1
3.219629700E-1	8.135597110E-1	2.488535494E-1	9.942177773E0	9.978512231E0
3.231589070E-1	8.111668825E-1	2.536391914E-1	9.920642853E0	9.956981428E0
3.243548970E-1	8.015955687E-1	2.632105052E-1	9.894321442E0	9.930228196E0
3.255508870E-1	7.872386575E-1	2.703889608E-1	9.863214493E0	9.898275356E0
3.267468240E-1	7.752745152E-1	2.799602449E-1	9.844072342E0	9.878521579E0
3.279428140E-1	7.657032609E-1	2.895315289E-1	9.836894035E0	9.870897338E0
3.291388030E-1	7.609176040E-1	2.823530734E-1	9.824930191E0	9.858396022E0
3.303347410E-1	7.633104324E-1	2.799602449E-1	9.803394318E0	9.837050407E0
3.315307300E-1	7.609176040E-1	2.799602449E-1	9.774680138E0	9.808248831E0
3.327267200E-1	7.513462901E-1	2.727817893E-1	9.745966911E0	9.778691231E0
3.339226570E-1	7.441678643E-1	2.751746178E-1	9.712467194E0	9.744820464E0
3.351186470E-1	7.561319470E-1	2.847459018E-1	9.693324089E0	9.726939274E0
3.363145840E-1	7.848458290E-1	2.847459018E-1	9.678967476E0	9.714909912E0
3.375105740E-1	7.992027402E-1	2.727817893E-1	9.657432556E0	9.694283805E0
3.387065640E-1	8.231309652E-1	2.608176768E-1	9.640682220E0	9.679272913E0
3.399025010E-1	8.470591903E-1	2.536391914E-1	9.633503914E0	9.673998127E0
3.410984910E-1	8.470591903E-1	2.464607358E-1	9.631111145E0	9.671429783E0
3.422944800E-1	8.470591903E-1	2.273181528E-1	9.631111145E0	9.670960899E0
3.434904180E-1	8.518448472E-1	2.057827413E-1	9.628718376E0	9.668516109E0
3.446864070E-1	8.662018180E-1	1.962114573E-1	9.633503914E0	9.674357973E0
3.458823970E-1	8.757730722E-1	1.914258152E-1	9.640682220E0	9.682271221E0
3.470783340E-1	8.733802438E-1	1.914258152E-1	9.652647018E0	9.693968813E0
3.482743240E-1	8.829515576E-1	1.914258152E-1	9.667003632E0	9.709130059E0
3.494702620E-1	8.829515576E-1	1.866401732E-1	9.674181938E0	9.716184137E0
3.506662510E-1	8.709874153E-1	1.818545163E-1	9.690931320E0	9.731692556E0
3.518622410E-1	8.590233326E-1	1.818545163E-1	9.707681656E0	9.747311182E0
3.530581780E-1	8.518448472E-1	1.770688742E-1	9.724431038E0	9.763275682E0
3.542541680E-1	8.470591903E-1	1.579262912E-1	9.745966911E0	9.783982881E0
3.554501570E-1	8.303094506E-1	1.483550072E-1	9.757930756E0	9.794316496E0
3.566460950E-1	8.135597110E-1	1.483550072E-1	9.762716293E0	9.797679217E0
3.578420840E-1	8.015955687E-1	1.459621787E-1	9.760323524E0	9.794272598E0
3.590380740E-1	7.992027402E-1	1.292124242E-1	9.753145218E0	9.786688026E0
3.602340120E-1	8.063812256E-1	1.268195957E-1	9.760323524E0	9.794398868E0
3.614300010E-1	8.135597110E-1	1.387837082E-1	9.760323524E0	9.795154701E0
3.626259390E-1	8.207381964E-1	1.363908947E-1	9.755537987E0	9.790951694E0
3.638219280E-1	8.279166222E-1	1.339980662E-1	9.743574142E0	9.779603186E0
3.650179180E-1	8.327022791E-1	1.172483116E-1	9.726823807E0	9.763106146E0
3.662138550E-1	8.590233326E-1	9.571290761E-2	9.710074425E0	9.748467950E0
3.674098450E-1	8.853443861E-1	8.135596663E-2	9.695717812E0	9.736395501E0
3.686058340E-1	8.973084688E-1	7.417750359E-2	9.683753014E0	9.725519895E0
3.698017720E-1	9.116654396E-1	7.178468257E-2	9.669396400E0	9.712544140E0
3.709977620E-1	9.236295223E-1	6.221338734E-2	9.657432556E0	9.701699108E0
3.721936990E-1	9.403793216E-1	5.982056633E-2	9.643074989E0	9.689003407E0
3.733896890E-1	9.475577474E-1	6.460621208E-2	9.628718376E0	9.675446099E0
3.745856780E-1	9.355936646E-1	5.982056633E-2	9.614361763E0	9.659962014E0
3.757816160E-1	9.355936646E-1	5.503492057E-2	9.597611427E0	9.643262387E0
3.769776050E-1	9.427721500E-1	5.024927482E-2	9.580862045E0	9.627266582E0
3.781735950E-1	9.499505758E-1	4.307080805E-2	9.580862045E0	9.627937407E0
3.793695320E-1	9.571290612E-1	4.067798331E-2	9.588040352E0	9.635780639E0
3.805655220E-1	9.523434043E-1	3.110669367E-2	9.580862045E0	9.628127706E0
3.817614590E-1	9.284151793E-1	3.349951655E-2	9.583254814E0	9.628179984E0
3.829574490E-1	9.164510965E-1	4.546362907E-2	9.604789734E0	9.648519855E0
3.841534390E-1	9.116654396E-1	5.024927482E-2	9.626325607E0	9.669529645E0
3.853493760E-1	9.068797827E-1	3.589234129E-2	9.643074989E0	9.685691222E0
3.865453660E-1	9.092726111E-1	2.871387079E-2	9.664610863E0	9.707332502E0
3.877413550E-1	8.997012973E-1	4.067798331E-2	9.686145782E0	9.727925639E0
3.889372930E-1	8.949156404E-1	5.503492057E-2	9.702896118E0	9.744233984E0
3.901332300E-1	9.044869542E-1	7.178468257E-2	9.724431038E0	9.766668250E0
3.913292200E-1	9.092726111E-1	8.853443712E-2	9.743574142E0	9.786309422E0
3.925252090E-1	9.212366939E-1	1.124626622E-1	9.760323524E0	9.804348025E0
3.937211990E-1	9.379864931E-1	1.411765367E-1	9.781859398E0	9.827742506E0
3.949171370E-1	9.595218897E-1	1.627119333E-1	9.791430473E0	9.839678254E0
3.961131260E-1	9.762716293E-1	1.866401732E-1	9.793823242E0	9.844130970E0
3.973091160E-1	9.834501147E-1	2.081755698E-1	9.796216011E0	9.847657556E0
3.985050530E-1	9.906286001E-1	2.321037948E-1	9.796216011E0	9.848911886E0
3.997010430E-1	1.004985452E0	2.608176768E-1	9.784252167E0	9.839187572E0
4.008970320E-1	1.012163997E0	2.823530734E-1	9.769894600E0	9.826242400E0
4.020929700E-1	1.019342422E0	3.038884699E-1	9.760323524E0	9.818111961E0
4.032889590E-1	1.021735311E0	3.278166950E-1	9.755537987E0	9.814373553E0
4.044848970E-1	1.021735311E0	3.493520916E-1	9.757930756E0	9.817494719E0
4.056808870E-1	1.014556766E0	3.732803464E-1	9.767501831E0	9.827143820E0
4.068768760E-1	9.978070259E-1	3.924229145E-1	9.769894600E0	9.828553052E0
4.080728140E-1	9.786644578E-1	4.163511395E-1	9.765109062E0	9.822855358E0
4.092688030E-1	9.571290612E-1	4.498506486E-1	9.762716293E0	9.819831519E0
4.104647930E-1	9.403793216E-1	4.713860750E-1	9.757930756E0	9.814465382E0
4.116607300E-1	9.164510965E-1	4.833501875E-1	9.750752449E0	9.805645483E0
4.128567200E-1	8.925228715E-1	5.024927258E-1	9.743574142E0	9.797261509E0
4.140526570E-1	8.805587292E-1	5.216353536E-1	9.729216576E0	9.782900505E0
4.152486470E-1	8.566305041E-1	5.455635786E-1	9.719645500E0	9.772561798E0
4.164446370E-1	8.303094506E-1	5.575276613E-1	9.714859962E0	9.766204737E0
4.176405740E-1	8.255237937E-1	5.623133183E-1	9.707681656E0	9.758932776E0
4.188365640E-1	8.279166222E-1	5.718846321E-1	9.695717812E0	9.747791640E0
4.200325530E-1	8.279166222E-1	5.742774606E-1	9.681360245E0	9.733651767E0
4.212284910E-1	8.303094506E-1	5.694918036E-1	9.676574707E0	9.728814561E0
4.224244800E-1	8.279166222E-1	5.599204898E-1	9.678967476E0	9.730435154E0
4.236204180E-1	8.207381964E-1	5.431707501E-1	9.686145782E0	9.736018990E0
4.248164070E-1	8.327022791E-1	5.359922647E-1	9.693324089E0	9.743778153E0
4.260123970E-1	8.614161611E-1	5.192425251E-1	9.698110580E0	9.750128175E0
4.272083340E-1	8.614161611E-1	4.953143001E-1	9.710074425E0	9.760784773E0
4.284043240E-1	8.566305041E-1	4.857429862E-1	9.724431038E0	9.774166004E0
4.296003140E-1	8.685946465E-1	4.857429862E-1	9.731609344E0	9.782362871E0
4.307962510E-1	8.829515576E-1	4.689932466E-1	9.724431038E0	9.775690110E0
4.319922410E-1	8.997012973E-1	4.522434771E-1	9.731609344E0	9.783568215E0
4.331881780E-1	9.140582681E-1	4.522434771E-1	9.750752449E0	9.803937984E0
4.343841680E-1	9.212366939E-1	4.450650215E-1	9.760323524E0	9.813800244E0
4.355801570E-1	9.260223508E-1	4.307080805E-1	9.772287369E0	9.825509008E0
4.367760950E-1	9.308080077E-1	4.211367965E-1	9.781859398E0	9.835066498E0
4.379720840E-1	9.355936646E-1	4.163511395E-1	9.779465675E0	9.832936117E0
4.391680740E-1	9.427721500E-1	4.067798555E-1	9.784252167E0	9.837981482E0
4.403640120E-1	9.619147182E-1	3.876372576E-1	9.789037704E0	9.843820485E0
4.415600010E-1	9.834501147E-1	3.517449200E-1	9.789037704E0	9.844600439E0
4.427559910E-1	9.786644578E-1	3.206382394E-1	9.791430473E0	9.845440758E0
4.439519280E-1	9.714859724E-1	2.871387303E-1	9.789037704E0	9.841315604E0
4.451479180E-1	9.714859724E-1	2.560320199E-1	9.781859398E0	9.833316362E0
4.463439070E-1	9.643075466E-1	2.321037948E-1	9.769894600E0	9.820112103E0
4.475398450E-1	9.619147182E-1	2.033899277E-1	9.745966911E0	9.795433550E0
4.487358340E-1	9.547362328E-1	1.651047617E-1	9.710074425E0	9.758295250E0
4.499317720E-1	9.427721500E-1	1.220339537E-1	9.678967476E0	9.725539729E0
4.511277620E-1	9.355936646E-1	9.092725813E-2	9.657432556E0	9.703072031E0
4.523237510E-1	9.236295223E-1	7.896314561E-2	9.640682220E0	9.685147410E0
4.535196890E-1	9.140582681E-1	7.657032460E-2	9.628718376E0	9.672310122E0
4.547156780E-1	9.188438654E-1	5.982056633E-2	9.621540070E0	9.665499773E0
4.559116680E-1	9.236295223E-1	4.785645381E-2	9.609575272E0	9.653979420E0
4.571076050E-1	9.260223508E-1	4.067798331E-2	9.592825890E0	9.637503859E0
4.583035950E-1	9.308080077E-1	3.110669367E-2	9.571290970E0	9.616495308E0
4.594995320E-1	9.332008362E-1	3.828516230E-2	9.537791252E0	9.583412311E0
4.606955220E-1	9.427721500E-1	4.307080805E-2	9.523433685E0	9.570081691E0
4.618915120E-1	9.499505758E-1	3.828516230E-2	9.513862610E0	9.561247492E0
4.630874490E-1	9.427721500E-1	2.871387079E-2	9.492327690E0	9.539073791E0
4.642834390E-1	9.475577474E-1	2.871387079E-2	9.473184586E0	9.520499796E0
4.654794280E-1	9.499505758E-1	3.828516230E-2	9.463613510E0	9.511248736E0
4.666753660E-1	9.451649189E-1	5.264209956E-2	9.461220741E0	9.508459698E0
4.678713550E-1	9.427721500E-1	6.699903309E-2	9.463613510E0	9.510693396E0
4.690672930E-1	9.403793216E-1	7.417750359E-2	9.468399048E0	9.515271730E0
4.702632820E-1	9.308080077E-1	5.982056633E-2	9.477970123E0	9.523754496E0
4.714592720E-1	9.212366939E-1	5.264209956E-2	9.485149384E0	9.529926918E0
4.726552090E-1	9.140582681E-1	5.503492057E-2	9.494720459E0	9.538776020E0
4.738511990E-1	9.068797827E-1	5.742774159E-2	9.506684303E0	9.550014415E0
4.750471890E-1	9.164510965E-1	5.982056633E-2	9.535398483E0	9.579524276E0
4.762431260E-1	9.308080077E-1	5.264209956E-2	9.564111710E0	9.609443664E0
4.774391160E-1	9.236295223E-1	4.067798331E-2	9.595218658E0	9.639655974E0
4.786351050E-1	9.068797827E-1	3.110669367E-2	9.631111145E0	9.673763510E0
4.798310430E-1	8.901300430E-1	2.153540403E-2	9.674181938E0	9.715070326E0
4.810270320E-1	8.733802438E-1	2.153540403E-2	9.710074425E0	9.749297521E0
4.822229700E-1	8.590233326E-1	1.674975827E-2	9.750752449E0	9.788532830E0
4.834189590E-1	8.470591903E-1	7.178467698E-3	9.784252167E0	9.820852879E0
4.846149490E-1	8.350951076E-1	-4.785645287E-3	9.808179855E0	9.843667955E0
4.858108870E-1	8.374879360E-1	-1.435693540E-2	9.834501266E0	9.870106753E0
4.870068760E-1	8.398807645E-1	-1.914258115E-2	9.851250648E0	9.887006902E0
4.882028660E-1	8.231309652E-1	-2.153540403E-2	9.884750366E0	9.918986751E0
4.893988030E-1	8.087740541E-1	-2.871387079E-2	9.925428391E0	9.958366768E0
4.905947930E-1	7.968099117E-1	-2.392822690E-2	9.954142570E0	9.986011862E0
4.917907300E-1	7.896314859E-1	-2.153540403E-2	9.982855797E0	1.001405969E1
4.929867200E-1	7.896314859E-1	-1.914258115E-2	1.001874828E1	1.004983589E1
4.941827090E-1	7.680960894E-1	-1.914258115E-2	1.005464077E1	1.008395453E1
4.953786470E-1	7.298108935E-1	-2.632104978E-2	1.007139015E1	1.009783226E1
4.965746370E-1	6.699903607E-1	-2.871387079E-2	1.007378292E1	1.009607914E1
4.977706260E-1	4.594219327E-1	-6.939185411E-2	1.005224800E1	1.006298035E1
4.989665640E-1	9.092725813E-2	-1.531406492E-1	1.000678444E1	1.000836923E1
5.001625530E-1	-1.746760458E-1	-2.177468538E-1	9.985248566E0	9.989149830E0
5.013584910E-1	-2.440679073E-1	-2.344966233E-1	1.002831936E1	1.003402945E1
5.025544800E-1	-1.938186288E-1	-1.698904037E-1	1.013360405E1	1.013688115E1
5.037504700E-1	-8.853443712E-2	-6.699903309E-2	1.018624592E1	1.018685099E1
5.049464070E-1	2.153540403E-2	4.785645287E-3	1.019103146E1	1.019105533E1
5.061423970E-1	1.220339537E-1	4.546362907E-2	1.016710377E1	1.016793776E1
5.073383870E-1	2.105683982E-1	6.939185411E-2	1.009531879E1	1.009775301E1
5.085343240E-1	2.943171859E-1	9.571290761E-2	1.002353382E1	1.002831062E1
5.097303140E-1	3.900300860E-1	1.268195957E-1	9.942177773E0	9.950633424E0
5.109263030E-1	4.833501875E-1	1.555334777E-1	9.875179291E0	9.888224517E0
5.121222410E-1	5.551348329E-1	1.770688742E-1	9.832108498E0	9.849359653E0
5.133182300E-1	6.269195080E-1	1.890329868E-1	9.796216011E0	9.818075660E0
5.145141680E-1	6.843472719E-1	1.962114573E-1	9.781859398E0	9.807731818E0
5.157101570E-1	7.250252366E-1	1.914258152E-1	9.791430473E0	9.820102655E0
5.169061470E-1	7.561319470E-1	1.339980662E-1	9.801001549E0	9.831038722E0
5.181020840E-1	7.752745152E-1	6.939185411E-2	9.784252167E0	9.815164607E0
5.192980740E-1	7.848458290E-1	4.067798331E-2	9.762716293E0	9.794297683E0
5.204940640E-1	7.896314859E-1	2.871387079E-2	9.767501831E0	9.799409900E0
5.216900010E-1	7.896314859E-1	1.435693540E-2	9.781859398E0	9.813689280E0
5.228859910E-1	7.776673436E-1	-2.392822690E-2	9.808179855E0	9.838990351E0
5.240819280E-1	7.513462901E-1	-6.460621208E-2	9.839286804E0	9.868143697E0
5.252779180E-1	7.274180651E-1	-1.004985496E-1	9.865608215E0	9.892899598E0
5.264739070E-1	7.106683254E-1	-1.268195957E-1	9.884750366E0	9.911075748E0
5.276698450E-1	6.939185858E-1	-1.579262912E-1	9.896714211E0	9.922268686E0
5.288658340E-1	6.699903607E-1	-1.842473447E-1	9.894321442E0	9.918690990E0
5.300618240E-1	6.364908218E-1	-1.986042857E-1	9.875179291E0	9.897662868E0
5.312577620E-1	6.173482537E-1	-2.009970993E-1	9.858428955E0	9.879784419E0
5.324537510E-1	6.101697683E-1	-1.866401732E-1	9.836894035E0	9.857566939E0
5.336496890E-1	6.029912829E-1	-1.674975902E-1	9.812965393E0	9.832901084E0
5.348456780E-1	6.149554253E-1	-1.603191197E-1	9.793823242E0	9.814420314E0
5.360416680E-1	6.173482537E-1	-1.244267747E-1	9.767501831E0	9.787782839E0
5.372376050E-1	6.005984545E-1	-4.546362907E-2	9.736394882E0	9.755007470E0
5.384335950E-1	6.795616150E-1	-7.657032460E-2	9.738788605E0	9.762769612E0
5.396295840E-1	8.207381964E-1	-1.794617027E-1	9.796216011E0	9.832175030E0
5.408255220E-1	8.829515576E-1	-2.129612118E-1	9.832108498E0	9.873971513E0
5.420215120E-1	8.949156404E-1	-2.129612118E-1	9.836894035E0	9.879813295E0
5.432175010E-1	9.164510965E-1	-2.057827413E-1	9.829715729E0	9.874489377E0
5.444134390E-1	9.475577474E-1	-2.009970993E-1	9.820143700E0	9.867800555E0
5.456094280E-1	9.786644578E-1	-2.009970993E-1	9.824930191E0	9.875598069E0
5.468053660E-1	1.004985452E0	-2.081755698E-1	9.841679573E0	9.895048744E0
5.480013550E-1	1.019342422E0	-2.201396823E-1	9.851250648E0	9.906293948E0
5.491973450E-1	1.021735311E0	-2.249253243E-1	9.856036186E0	9.911406749E0
5.503932820E-1	1.009771109E0	-2.416750938E-1	9.865608215E0	9.920094254E0
5.515892720E-1	1.007378340E0	-2.608176768E-1	9.894321442E0	9.948891082E0
5.527852620E-1	1.009771109E0	-2.679961324E-1	9.918250084E0	9.973121094E0
5.539811990E-1	9.906286001E-1	-2.608176768E-1	9.937392235E0	9.990051817E0
5.551771890E-1	9.834501147E-1	-2.536391914E-1	9.958928108E0	1.001058220E1
5.563731260E-1	9.786644578E-1	-2.344966233E-1	9.982855797E0	1.003345318E1
5.575691160E-1	9.643075466E-1	-2.081755698E-1	1.000199890E1	1.005053273E1
5.587651050E-1	9.619147182E-1	-1.651047617E-1	1.000199890E1	1.004950355E1
5.599610430E-1	9.714859724E-1	-1.148554832E-1	1.001396275E1	1.006163141E1
5.611570320E-1	9.643075466E-1	-7.657032460E-2	1.002831936E1	1.007486681E1
5.623530220E-1	9.571290612E-1	-3.828516230E-2	1.003310490E1	1.007872788E1
5.635489590E-1	9.595218897E-1	2.392822644E-3	1.003789139E1	1.008364773E1
5.647449490E-1	9.595218897E-1	5.024927482E-2	1.003310490E1	1.007900794E1
5.659409390E-1	9.810572863E-1	9.571290761E-2	1.001635551E1	1.006474104E1
5.671368760E-1	1.004985452E0	1.316052526E-1	1.001156998E1	1.006274560E1
5.683328660E-1	1.009771109E0	1.698904037E-1	1.001396275E1	1.006617854E1
5.695288030E-1	1.009771109E0	2.153540403E-1	1.000917721E1	1.006228818E1
5.707247930E-1	1.009771109E0	2.464607358E-1	1.002114105E1	1.007490191E1
5.719207820E-1	1.016949654E0	2.727817893E-1	1.004028416E1	1.009534063E1
5.731167200E-1	1.036092162E0	3.086741269E-1	1.004746246E1	1.010545737E1
5.743127090E-1	1.052842021E0	3.397808075E-1	1.004985523E1	1.011056465E1
5.755086470E-1	1.052842021E0	3.684946895E-1	1.005464077E1	1.011632669E1
5.767046370E-1	1.040877819E0	3.948157430E-1	1.006421185E1	1.012559461E1
5.779006260E-1	1.026520967E0	4.283152521E-1	1.006660461E1	1.012786886E1
5.790965640E-1	1.019342422E0	4.450650215E-1	1.007139015E1	1.013262263E1
5.802925530E-1	1.026520967E0	4.546363056E-1	1.008096218E1	1.014328536E1
5.814885430E-1	1.036092162E0	4.713860750E-1	1.008814049E1	1.015215594E1
5.826844800E-1	1.036092162E0	4.737788737E-1	1.009053326E1	1.015464499E1
5.838804700E-1	1.038485050E0	4.737788737E-1	1.010010433E1	1.016439989E1
5.850764590E-1	1.033699393E0	4.809573591E-1	1.010728264E1	1.017138224E1
5.862723970E-1	1.024128079E0	4.881358147E-1	1.010488987E1	1.016837815E1
5.874683870E-1	1.026520967E0	4.785645306E-1	1.010728264E1	1.017054235E1
5.886643760E-1	1.016949654E0	4.594219327E-1	1.010967541E1	1.017107624E1
5.898603140E-1	1.009771109E0	4.378865361E-1	1.010010433E1	1.015989615E1
5.910563030E-1	1.012163997E0	4.139583111E-1	1.008814049E1	1.014723686E1
5.922522410E-1	1.016949654E0	3.972085714E-1	1.008096218E1	1.013990926E1
5.934482300E-1	1.028913736E0	3.708875179E-1	1.007617569E1	1.013536075E1
5.946442200E-1	1.038485050E0	3.278166950E-1	1.007378292E1	1.013247341E1
5.958401570E-1	1.045663476E0	2.895315289E-1	1.007856941E1	1.013680433E1
5.970361470E-1	1.057627559E0	2.560320199E-1	1.007617569E1	1.013476418E1
5.982320840E-1	1.074377418E0	2.177468538E-1	1.007139015E1	1.013087361E1
5.994280740E-1	1.086341500E0	1.866401732E-1	1.006421185E1	1.012439294E1
6.006240640E-1	1.100698471E0	1.579262912E-1	1.005703354E1	1.011832009E1
6.018200010E-1	1.107876897E0	1.316052526E-1	1.005224800E1	1.011397059E1
6.030159910E-1	1.112662554E0	8.853443712E-2	1.004985523E1	1.011164905E1
6.042119800E-1	1.124626637E0	3.589234129E-2	1.004267693E1	1.010551499E1
6.054079180E-1	1.141376376E0	-1.196411345E-2	1.004028416E1	1.010495864E1
6.066039070E-1	1.155733347E0	-6.699903309E-2	1.004506969E1	1.011155941E1
6.077998970E-1	1.162911773E0	-1.052841991E-1	1.004028416E1	1.010795501E1
6.089958340E-1	1.182054400E0	-1.316052526E-1	1.003310490E1	1.010335422E1
6.101918240E-1	1.203589797E0	-1.651047617E-1	1.003549862E1	1.010876454E1
6.113877620E-1	1.220339537E0	-1.986042857E-1	1.003549862E1	1.011137502E1
6.125837510E-1	1.229910851E0	-2.297109663E-1	1.003071213E1	1.010844368E1
6.137797410E-1	1.241874933E0	-2.440679073E-1	1.003789139E1	1.011736557E1
6.149756780E-1	1.249053478E0	-2.584248483E-1	1.003549862E1	1.011623203E1
6.161716680E-1	1.249053478E0	-2.847459018E-1	1.002592659E1	1.010744373E1
6.173676570E-1	1.258624673E0	-3.038884699E-1	1.001635551E1	1.009969614E1
6.185635950E-1	1.272981644E0	-3.182454109E-1	1.000439167E1	1.009007508E1
6.197595840E-1	1.282552958E0	-3.254238665E-1	9.987641335E0	1.007491053E1
6.209555220E-1	1.270588875E0	-3.134597540E-1	9.966106415E0	1.005166306E1
6.221515120E-1	1.251446247E0	-2.943171859E-1	9.937392235E0	1.002020483E1
6.233475010E-1	1.246660590E0	-2.919243574E-1	9.915857315E0	9.998180272E0
6.245434390E-1	1.234696507E0	-2.823530734E-1	9.901499748E0	9.982178920E0
6.257394280E-1	1.225125194E0	-2.679961324E-1	9.884750366E0	9.963987328E0
6.269354180E-1	1.213161111E0	-2.536391914E-1	9.872786522E0	9.950276701E0
6.281313550E-1	1.194018483E0	-2.344966233E-1	9.875179291E0	9.949866071E0
6.293273450E-1	1.179661512E0	-2.033899277E-1	9.879964828E0	9.952219539E0
6.305233340E-1	1.170090318E0	-1.698904037E-1	9.882357597E0	9.952837072E0
6.317192720E-1	1.155733347E0	-1.387837082E-1	9.882357597E0	9.950676970E0
6.329152620E-1	1.138983607E0	-1.004985496E-1	9.889535904E0	9.955415813E0
6.341111990E-1	1.131805062E0	-6.221338734E-2	9.901499748E0	9.966170301E0
6.353071890E-1	1.122233868E0	-3.349951655E-2	9.901499748E0	9.964949992E0
6.365031780E-1	1.117448211E0	-2.392822644E-3	9.884750366E0	9.947712603E0
6.376991160E-1	1.115055323E0	3.349951655E-2	9.870393753E0	9.933234289E0
6.388951050E-1	1.117448211E0	5.742774159E-2	9.868000984E0	9.931235164E0
6.400910430E-1	1.115055323E0	9.092725813E-2	9.868000984E0	9.931216419E0
6.412870320E-1	1.100698471E0	1.316052526E-1	9.856036186E0	9.918180598E0
6.424830220E-1	1.086341500E0	1.674975902E-1	9.846465111E0	9.907626783E0
6.436789590E-1	1.069591761E0	2.009970993E-1	9.832108498E0	9.892157696E0
6.448749490E-1	1.055234790E0	2.273181528E-1	9.812965393E0	9.872156999E0
6.460709390E-1	1.043270707E0	2.440679073E-1	9.810572624E0	9.868906633E0
6.472668760E-1	1.036092162E0	2.608176768E-1	9.812965393E0	9.870957534E0
6.484628660E-1	1.024128079E0	2.919243574E-1	9.801001549E0	9.858685993E0
6.496588550E-1	1.021735311E0	3.158525825E-1	9.786644936E0	9.844903504E0
6.508547930E-1	1.019342422E0	3.349951804E-1	9.772287369E0	9.831016283E0
6.520507820E-1	1.016949654E0	3.589234054E-1	9.765109062E0	9.824477981E0
6.532467720E-1	1.016949654E0	3.613162339E-1	9.757930756E0	9.817430858E0
6.544427090E-1	1.012163997E0	3.637090325E-1	9.753145218E0	9.812267926E0
6.556386990E-1	1.012163997E0	3.756731451E-1	9.748359680E0	9.807962210E0
6.568346370E-1	1.007378340E0	3.876372576E-1	9.753145218E0	9.812691547E0
6.580306260E-1	9.954141974E-1	3.972085714E-1	9.753145218E0	9.811853327E0
6.592266160E-1	9.834501147E-1	4.043870270E-1	9.750752449E0	9.808561379E0
6.604225530E-1	9.619147182E-1	4.043870270E-1	9.755537987E0	9.811183935E0
6.616185430E-1	9.451649189E-1	3.996013701E-1	9.743574142E0	9.797461664E0
6.628144800E-1	9.403793216E-1	3.996013701E-1	9.736394882E0	9.789861073E0
6.640104700E-1	9.308080077E-1	3.948157430E-1	9.731609344E0	9.783992204E0
6.652064590E-1	9.188438654E-1	3.924229145E-1	9.724431038E0	9.775624216E0
6.664023970E-1	9.188438654E-1	3.972085714E-1	9.714859962E0	9.766296780E0
6.675983870E-1	9.140582681E-1	3.924229145E-1	9.714859962E0	9.765654220E0
6.687943760E-1	8.973084688E-1	3.828516304E-1	9.717252731E0	9.766101500E0
6.699903140E-1	8.949156404E-1	3.732803464E-1	9.724431038E0	9.772654257E0
6.711863030E-1	8.997012973E-1	3.565305769E-1	9.731609344E0	9.779611286E0
6.723822930E-1	8.829515576E-1	3.397808075E-1	9.729216576E0	9.775106630E0
6.735782300E-1	8.685946465E-1	3.278166950E-1	9.729216576E0	9.773411667E0
6.747742200E-1	8.662018180E-1	3.206382394E-1	9.724431038E0	9.768197044E0
6.759701570E-1	8.685946465E-1	3.158525825E-1	9.712467194E0	9.756343501E0
6.771661470E-1	8.781659007E-1	3.158525825E-1	9.705288887E0	9.750054902E0
6.783621370E-1	8.781659007E-1	3.086741269E-1	9.688538551E0	9.733151305E0
6.795580740E-1	8.685946465E-1	2.943171859E-1	9.664610863E0	9.708026699E0
6.807540640E-1	8.614161611E-1	2.727817893E-1	9.643074989E0	9.685315842E0
6.819500530E-1	8.590233326E-1	2.656033039E-1	9.614361763E0	9.656314945E0
6.831459910E-1	8.733802438E-1	2.560320199E-1	9.590433121E0	9.633522351E0
6.843419800E-1	8.853443861E-1	2.416750938E-1	9.590433121E0	9.634243560E0
6.855379700E-1	8.901300430E-1	2.368894368E-1	9.590433121E0	9.634565664E0
6.867339070E-1	9.020941257E-1	2.297109663E-1	9.576076508E0	9.621215215E0
6.879298970E-1	9.092726111E-1	2.153540403E-1	9.542576790E0	9.588218074E0
6.891258340E-1	9.044869542E-1	2.129612118E-1	9.513862610E0	9.559133375E0
6.903218240E-1	8.997012973E-1	2.129612118E-1	9.497113228E0	9.542011034E0
6.915178140E-1	9.020941257E-1	2.009970993E-1	9.480362892E0	9.525305990E0
6.927137510E-1	9.092726111E-1	1.914258152E-1	9.466006279E0	9.511503320E0
6.939097410E-1	9.164510965E-1	1.866401732E-1	9.449256897E0	9.495429062E0
6.951057300E-1	9.260223508E-1	1.770688742E-1	9.437292099E0	9.484268709E0
6.963016680E-1	9.332008362E-1	1.746760458E-1	9.427721024E0	9.475404963E0
6.974976570E-1	9.379864931E-1	1.722832322E-1	9.420542717E0	9.468691845E0
6.986936470E-1	9.379864931E-1	1.698904037E-1	9.406186104E0	9.454365046E0
6.998895840E-1	9.308080077E-1	1.674975902E-1	9.387042999E0	9.434565982E0
7.010855740E-1	9.188438654E-1	1.627119333E-1	9.372686386E0	9.419023268E0
7.022815120E-1	9.044869542E-1	1.555334777E-1	9.363115311E0	9.407986800E0
7.034775010E-1	9.068797827E-1	1.435693651E-1	9.348757744E0	9.393738045E0
7.046734910E-1	9.068797827E-1	1.435693651E-1	9.332008362E0	9.377069007E0
7.058694280E-1	9.020941257E-1	1.435693651E-1	9.322437286E0	9.367081879E0
7.070654180E-1	9.020941257E-1	1.316052526E-1	9.308079720E0	9.352616843E0
7.082613550E-1	9.140582681E-1	1.292124242E-1	9.288937569E0	9.334696542E0
7.094573450E-1	9.332008362E-1	1.387837082E-1	9.279366493E0	9.327205757E0
7.106533340E-1	9.236295223E-1	1.459621787E-1	9.267401695E0	9.314458150E0
7.118492720E-1	9.164510965E-1	1.555334777E-1	9.250652313E0	9.297238380E0
7.130452620E-1	9.284151793E-1	1.555334777E-1	9.226723671E0	9.274619944E0
7.142412510E-1	9.284151793E-1	1.555334777E-1	9.193224907E0	9.241294801E0
7.154371890E-1	9.188438654E-1	1.651047617E-1	9.166903496E0	9.214317844E0
7.166331780E-1	8.973084688E-1	1.674975902E-1	9.140582085E0	9.186046961E0
7.178291160E-1	8.685946465E-1	1.674975902E-1	9.104690552E0	9.147562634E0
7.190251050E-1	8.494520187E-1	1.746760458E-1	9.073583603E0	9.114932795E0
7.202210950E-1	8.327022791E-1	1.866401732E-1	9.049654961E0	9.089801018E0
7.214170320E-1	8.159525394E-1	1.938186288E-1	9.030512810E0	9.069371853E0
7.226130220E-1	7.968099117E-1	2.009970993E-1	9.004191399E0	9.041613164E0
7.238090120E-1	7.728816867E-1	2.201396823E-1	8.975478172E0	9.011382580E0
7.250049490E-1	7.537391186E-1	2.297109663E-1	8.958727837E0	8.993313863E0
7.262009390E-1	7.393822074E-1	2.225325108E-1	8.939585686E0	8.972870165E0
7.273969280E-1	7.178468108E-1	2.153540403E-1	8.913264275E0	8.944716957E0
7.285928660E-1	6.987041831E-1	2.297109663E-1	8.886942863E0	8.917326288E0
7.297888550E-1	6.819544435E-1	2.440679073E-1	8.863015175E0	8.892562566E0
7.309847930E-1	6.628118753E-1	2.416750938E-1	8.836693764E0	8.864811510E0
7.321807820E-1	6.484549642E-1	2.440679073E-1	8.805587769E0	8.832804704E0
7.333767720E-1	6.317051649E-1	2.512463629E-1	8.779266357E0	8.805549042E0
7.345727090E-1	6.029912829E-1	2.536391914E-1	8.755337715E0	8.779742014E0
7.357686990E-1	5.670989752E-1	2.536391914E-1	8.729017258E0	8.751095724E0
7.369646890E-1	5.407779217E-1	2.560320199E-1	8.693124771E0	8.713691034E0
7.381606260E-1	5.312066078E-1	2.727817893E-1	8.654839516E0	8.675415691E0
7.393566160E-1	5.288137794E-1	2.991028428E-1	8.621339798E0	8.642719852E0
7.405525530E-1	5.120640397E-1	3.158525825E-1	8.583054543E0	8.604115162E0
7.417485430E-1	4.833501875E-1	3.206382394E-1	8.544769287E0	8.564433341E0
7.429445320E-1	4.642075896E-1	3.326023519E-1	8.518448830E0	8.537568944E0
7.441404700E-1	4.498506486E-1	3.397808075E-1	8.484949112E0	8.503656745E0
7.453364590E-1	4.378865361E-1	3.421736360E-1	8.451449394E0	8.469700365E0
7.465324490E-1	4.378865361E-1	3.397808075E-1	8.427521706E0	8.445727779E0
7.477283870E-1	4.354937077E-1	3.445664644E-1	8.394021988E0	8.412371007E0
7.489243760E-1	4.211367965E-1	3.613162339E-1	8.355736732E0	8.374141267E0
7.501203660E-1	4.091726840E-1	3.684946895E-1	8.322237015E0	8.340434015E0
7.513163030E-1	3.996013701E-1	3.804588020E-1	8.291130066E0	8.309468571E0
7.525122930E-1	3.900300860E-1	3.852444589E-1	8.255238533E0	8.273421299E0
7.537082300E-1	3.876372576E-1	3.780659735E-1	8.224131584E0	8.241937687E0
7.549042200E-1	3.804588020E-1	3.708875179E-1	8.200202942E0	8.217398295E0
7.561002090E-1	3.780659735E-1	3.637090325E-1	8.178668022E0	8.195476115E0
7.572961470E-1	3.756731451E-1	3.541377485E-1	8.157132149E0	8.173453906E0
7.584921370E-1	3.637090325E-1	3.421736360E-1	8.142775536E0	8.158073331E0
7.596881260E-1	3.517449200E-1	3.349951804E-1	8.133204460E0	8.147696671E0
7.608840640E-1	3.445664644E-1	3.230310678E-1	8.123632431E0	8.137350858E0
7.620800530E-1	3.397808075E-1	3.062812984E-1	8.109275818E0	8.122168031E0
7.632759910E-1	3.373879790E-1	2.799602449E-1	8.094919205E0	8.106782674E0
7.644719800E-1	3.326023519E-1	2.608176768E-1	8.070990562E0	8.082050411E0
7.656679700E-1	3.349951804E-1	2.512463629E-1	8.051848412E0	8.062729646E0
7.668639070E-1	3.349951804E-1	2.368894368E-1	8.047062874E0	8.057515701E0
7.680598970E-1	3.326023519E-1	2.177468538E-1	8.044670105E0	8.054486645E0
7.692558870E-1	3.445664644E-1	1.986042857E-1	8.035098076E0	8.044934481E0
7.704518240E-1	3.517449200E-1	1.794617027E-1	8.023134232E0	8.032845940E0
7.716478140E-1	3.493520916E-1	1.603191197E-1	8.008777618E0	8.017996511E0
7.728437510E-1	3.421736360E-1	1.411765367E-1	8.008777618E0	8.017327020E0
7.740397410E-1	3.397808075E-1	1.124626622E-1	8.011170387E0	8.019161416E0
7.752357300E-1	3.373879790E-1	8.374879509E-2	7.989634991E0	7.997193995E0
7.764316680E-1	3.397808075E-1	6.460621208E-2	7.963313580E0	7.970821045E0
7.776276570E-1	3.445664644E-1	3.589234129E-2	7.960920811E0	7.968454961E0
7.788236470E-1	3.493520916E-1	2.392822644E-3	7.963313580E0	7.970973327E0
7.800195840E-1	3.445664644E-1	-2.632104978E-2	7.956135273E0	7.963636564E0
7.812155740E-1	3.445664644E-1	-4.307080805E-2	7.946564198E0	7.954147578E0
7.824115640E-1	3.373879790E-1	-6.221338734E-2	7.925028801E0	7.932451238E0
7.836075010E-1	3.254238665E-1	-8.374879509E-2	7.886743546E0	7.893898803E0
7.848034910E-1	3.302095234E-1	-1.028913707E-1	7.858029366E0	7.865637321E0
7.859994280E-1	3.373879790E-1	-1.339980662E-1	7.841279984E0	7.849678841E0
7.871954180E-1	3.445664644E-1	-1.603191197E-1	7.822137356E0	7.831363935E0
7.883914070E-1	3.517449200E-1	-1.818545163E-1	7.810173035E0	7.820204498E0
7.895873450E-1	3.517449200E-1	-2.033899277E-1	7.795815945E0	7.806397261E0
7.907833340E-1	3.661018610E-1	-2.129612118E-1	7.781459332E0	7.792977119E0
7.919793240E-1	3.756731451E-1	-2.249253243E-1	7.776673794E0	7.788990757E0
7.931752620E-1	3.756731451E-1	-2.416750938E-1	7.771887779E0	7.784714305E0
7.943712510E-1	3.732803464E-1	-2.584248483E-1	7.762316704E0	7.775582437E0
7.955671890E-1	3.756731451E-1	-2.703889608E-1	7.757531166E0	7.771327447E0
7.967631780E-1	3.756731451E-1	-2.703889608E-1	7.757531166E0	7.771327447E0
7.979591680E-1	3.756731451E-1	-2.751746178E-1	7.759923935E0	7.773883898E0
7.991551050E-1	3.828516304E-1	-2.775674164E-1	7.757531166E0	7.771930831E0
8.003510950E-1	3.852444589E-1	-2.823530734E-1	7.745566845E0	7.760279782E0
8.015470840E-1	3.804588020E-1	-2.751746178E-1	7.735995770E0	7.750232288E0
8.027430220E-1	3.780659735E-1	-2.632105052E-1	7.733603001E0	7.747311083E0
8.039390120E-1	3.732803464E-1	-2.464607358E-1	7.755138397E0	7.768027592E0
8.051349490E-1	3.684946895E-1	-2.201396823E-1	7.771887779E0	7.783732361E0
8.063309390E-1	3.613162339E-1	-2.009970993E-1	7.774280548E0	7.785267323E0
8.075269280E-1	3.541377485E-1	-1.770688742E-1	7.781459332E0	7.791525926E0
8.087228660E-1	3.565305769E-1	-1.483550072E-1	7.798209190E0	7.807764715E0
8.099188550E-1	3.565305769E-1	-1.148554832E-1	7.812565804E0	7.821540147E0
8.111148450E-1	3.445664644E-1	-8.135596663E-2	7.822137356E0	7.830145443E0
8.123107820E-1	3.397808075E-1	-5.264209956E-2	7.829315662E0	7.836861995E0
8.135067720E-1	3.397808075E-1	-1.674975827E-2	7.846065521E0	7.853437191E0
8.147027620E-1	3.302095234E-1	2.871387079E-2	7.869993687E0	7.876970448E0
8.158986990E-1	3.206382394E-1	7.417750359E-2	7.881958008E0	7.888825845E0
8.170946890E-1	3.182454109E-1	1.076770201E-1	7.889136314E0	7.896286866E0
8.182906260E-1	3.110669553E-1	1.483550072E-1	7.903493404E0	7.911003720E0
8.194866160E-1	3.062812984E-1	1.794617027E-1	7.915457249E0	7.923413292E0
8.206826050E-1	2.991028428E-1	2.057827413E-1	7.922635555E0	7.930949703E0
8.218785430E-1	2.991028428E-1	2.297109663E-1	7.932207108E0	7.941167372E0
8.230745320E-1	3.158525825E-1	2.536391914E-1	7.946564198E0	7.956882445E0
8.242704700E-1	3.326023519E-1	2.775674164E-1	7.968099594E0	7.979867113E0
8.254664590E-1	3.469592929E-1	2.919243574E-1	7.996813297E0	8.009658138E0
8.266624490E-1	3.613162339E-1	3.038884699E-1	8.027919769E0	8.041790438E0
8.278583870E-1	3.756731451E-1	3.086741269E-1	8.059026718E0	8.073680801E0
8.290543760E-1	3.852444589E-1	3.182454109E-1	8.090133667E0	8.105550949E0
8.302503660E-1	3.996013701E-1	3.182454109E-1	8.118846893E0	8.134902352E0
8.314463030E-1	4.091726840E-1	3.110669553E-1	8.147561073E0	8.163757491E0
8.326422930E-1	4.067798555E-1	3.062812984E-1	8.171489716E0	8.187339144E0
8.338382820E-1	4.115654826E-1	2.967100143E-1	8.202595711E0	8.218272286E0
8.350342200E-1	4.307080805E-1	2.727817893E-1	8.236095428E0	8.251859624E0
8.362302090E-1	4.354937077E-1	2.416750938E-1	8.260024071E0	8.275026240E0
8.374261470E-1	4.307080805E-1	2.105683982E-1	8.286344528E0	8.300202054E0
8.386221370E-1	4.354937077E-1	1.722832322E-1	8.310273170E0	8.323459404E0
8.398181260E-1	4.426721931E-1	1.316052526E-1	8.336593628E0	8.349375541E0
8.410140640E-1	4.354937077E-1	9.571290761E-2	8.374878883E0	8.386740251E0
8.422100530E-1	4.211367965E-1	5.264209956E-2	8.413164139E0	8.423862429E0
8.434060430E-1	4.283152521E-1	7.178467698E-3	8.434700012E0	8.445571016E0
8.446019800E-1	4.426721931E-1	-3.110669367E-2	8.453842163E0	8.465481299E0
8.457979700E-1	4.618147612E-1	-7.178468257E-2	8.475378036E0	8.488254165E0
8.469939070E-1	4.761717021E-1	-1.076770201E-1	8.494520187E0	8.508537303E0
8.481898970E-1	4.713860750E-1	-1.387837082E-1	8.516056061E0	8.530221368E0
8.493858870E-1	4.785645306E-1	-1.746760458E-1	8.523234367E0	8.538445983E0
8.505818240E-1	5.000999570E-1	-2.105683982E-1	8.535198212E0	8.552429335E0
8.517778140E-1	5.168496966E-1	-2.512463629E-1	8.571090698E0	8.590334924E0
8.529738030E-1	5.288137794E-1	-2.943171859E-1	8.599804878E0	8.621073632E0
8.541697410E-1	5.431707501E-1	-3.206382394E-1	8.616554260E0	8.639609405E0
8.553657300E-1	5.599204898E-1	-3.517449200E-1	8.645268440E0	8.670519122E0
8.565617200E-1	5.742774606E-1	-3.852444589E-1	8.671588898E0	8.699118456E0
8.577576570E-1	5.958128572E-1	-3.972085714E-1	8.697910309E0	8.727337014E0
8.589536470E-1	6.125625968E-1	-3.996013701E-1	8.729017258E0	8.759603671E0
8.601495840E-1	6.173482537E-1	-4.043870270E-1	8.760123253E0	8.791155051E0
8.613455740E-1	6.293123364E-1	-4.115654826E-1	8.786444664E0	8.818561674E0
8.625415640E-1	6.460621357E-1	-4.378865361E-1	8.817551613E0	8.852025607E0
8.637375010E-1	6.436693072E-1	-4.474578202E-1	8.853444099E0	8.888081970E0
8.649334910E-1	6.436693072E-1	-4.450650215E-1	8.886942863E0	8.921330983E0
8.661294800E-1	6.508477330E-1	-4.498506486E-1	8.918049812E0	8.953076613E0
8.673254180E-1	6.460621357E-1	-4.498506486E-1	8.946763992E0	8.981333299E0
8.685214070E-1	6.317051649E-1	-4.354937077E-1	8.985049248E0	9.017750061E0
8.697173970E-1	6.269195080E-1	-4.211367965E-1	9.025727272E0	9.057269846E0
8.709133340E-1	6.340979934E-1	-4.187439680E-1	9.059226990E0	9.091040668E0
8.721093240E-1	6.269195080E-1	-4.043870270E-1	9.078369141E0	9.108970479E0
8.733052620E-1	6.197410822E-1	-3.756731451E-1	9.095118523E0	9.123945981E0
8.745012510E-1	6.293123364E-1	-3.493520916E-1	9.114261627E0	9.142638892E0
8.756972410E-1	6.388836503E-1	-3.302095234E-1	9.131011009E0	9.159288875E0
8.768931780E-1	6.388836503E-1	-3.158525825E-1	9.145368576E0	9.173096618E0
8.780891680E-1	6.436693072E-1	-2.991028428E-1	9.157332420E0	9.184797752E0
8.792851570E-1	6.604190469E-1	-2.679961324E-1	9.164510727E0	9.192183207E0
8.804810950E-1	6.699903607E-1	-2.344966233E-1	9.176474571E0	9.203888380E0
8.816770840E-1	6.747759581E-1	-1.986042857E-1	9.186046600E0	9.212937555E0
8.828730220E-1	6.747759581E-1	-1.555334777E-1	9.195617676E0	9.221653740E0
8.840690120E-1	6.628118753E-1	-1.124626622E-1	9.209974289E0	9.234478536E0
8.852650010E-1	6.628118753E-1	-8.135596663E-2	9.221938133E0	9.246084647E0
8.864609390E-1	6.652047038E-1	-4.546362907E-2	9.238688469E0	9.262717143E0
8.876569280E-1	6.628118753E-1	-4.785645287E-3	9.267401695E0	9.291075108E0
8.888529180E-1	6.604190469E-1	2.871387079E-2	9.288937569E0	9.312429273E0
8.900488550E-1	6.580262184E-1	5.742774159E-2	9.310472488E0	9.333873494E0
8.912448450E-1	6.460621357E-1	8.374879509E-2	9.332008362E0	9.354720210E0
8.924407820E-1	6.293123364E-1	1.076770201E-1	9.351150513E0	9.372920797E0
8.936367720E-1	6.149554253E-1	1.411765367E-1	9.363115311E0	9.384350234E0
8.948327620E-1	6.005984545E-1	1.746760458E-1	9.372686386E0	9.393533963E0
8.960286990E-1	5.862415433E-1	1.794617027E-1	9.387042999E0	9.407043208E0
8.972246890E-1	5.718846321E-1	1.890329868E-1	9.401400566E0	9.420675035E0
8.984206780E-1	5.575276613E-1	2.177468538E-1	9.420542717E0	9.439537905E0
8.996166160E-1	5.527420044E-1	2.344966233E-1	9.446864128E0	9.465925958E0
9.008126050E-1	5.479564071E-1	2.344966233E-1	9.466006279E0	9.484751961E0
9.020085950E-1	5.455635786E-1	2.201396823E-1	9.487542152E0	9.505764419E0
9.032045320E-1	5.407779217E-1	2.081755698E-1	9.516255379E0	9.533881385E0
9.044005220E-1	5.407779217E-1	2.153540403E-1	9.537791252E0	9.555536620E0
9.055964590E-1	5.431707501E-1	2.344966233E-1	9.559326172E0	9.577616613E0
9.067924490E-1	5.383850932E-1	2.416750938E-1	9.585647583E0	9.603796382E0
9.079884390E-1	5.288137794E-1	2.368894368E-1	9.614361763E0	9.631807345E0
9.091843760E-1	5.144568682E-1	2.297109663E-1	9.638289452E0	9.654742697E0
9.103803660E-1	5.120640397E-1	2.249253243E-1	9.662218094E0	9.678391368E0
9.115763550E-1	5.048855543E-1	2.249253243E-1	9.681360245E0	9.697125193E0
9.127722930E-1	4.881358147E-1	2.153540403E-1	9.700503349E0	9.715164392E0
9.139682820E-1	4.929214716E-1	2.105683982E-1	9.717252731E0	9.732025034E0
9.151642200E-1	5.144568682E-1	2.033899277E-1	9.738788605E0	9.754488035E0
9.163602090E-1	5.264210105E-1	1.890329868E-1	9.765109062E0	9.781114842E0
9.175561990E-1	5.144568682E-1	1.866401732E-1	9.779465675E0	9.794766425E0
9.187521370E-1	5.120640397E-1	1.746760458E-1	9.796216011E0	9.811145164E0
9.199481260E-1	5.288137794E-1	1.579262912E-1	9.822537422E0	9.838029586E0
9.211441160E-1	5.407779217E-1	1.411765367E-1	9.851250648E0	9.867092323E0
9.223400530E-1	5.431707501E-1	1.172483116E-1	9.872786522E0	9.888412175E0
9.235360430E-1	5.503492355E-1	9.810572863E-2	9.889535904E0	9.905323287E0
9.247319800E-1	5.647061467E-1	7.896314561E-2	9.906285286E0	9.922681915E0
9.259279700E-1	5.838487148E-1	5.024927482E-2	9.930213928E0	9.947489782E0
9.271239590E-1	5.982056856E-1	1.674975827E-2	9.966106415E0	9.984057676E0
9.283198970E-1	6.029912829E-1	2.392822644E-3	9.987641335E0	1.000582748E1
9.295158870E-1	6.125625968E-1	-1.674975827E-2	9.992427826E0	1.001120010E1
9.307118760E-1	6.269195080E-1	-5.264209956E-2	1.000439167E1	1.002415343E1
9.319078140E-1	6.364908218E-1	-9.332008660E-2	1.002114105E1	1.004176763E1
9.331038030E-1	6.508477330E-1	-1.220339537E-1	1.004506969E1	1.006687242E1
9.342997410E-1	6.747759581E-1	-1.483550072E-1	1.006181908E1	1.008551114E1
9.354957300E-1	6.795616150E-1	-1.770688742E-1	1.007139015E1	1.009584355E1
9.366917200E-1	6.819544435E-1	-2.057827413E-1	1.007617569E1	1.010132293E1
9.378876570E-1	6.915257573E-1	-2.225325108E-1	1.008814049E1	1.011426256E1
9.390836470E-1	6.891329288E-1	-2.321037948E-1	1.010967541E1	1.013579366E1
9.402796370E-1	6.891329288E-1	-2.512463629E-1	1.012403297E1	1.015057006E1
9.414755740E-1	6.939185858E-1	-2.799602449E-1	1.013599682E1	1.016357871E1
9.426715640E-1	6.939185858E-1	-3.086741269E-1	1.015753174E1	1.018588502E1
9.438675010E-1	6.915257573E-1	-3.254238665E-1	1.017906761E1	1.020771894E1
9.450634910E-1	6.915257573E-1	-3.349951804E-1	1.021017456E1	1.023904752E1
9.462594800E-1	6.867401004E-1	-3.469592929E-1	1.024606609E1	1.027491426E1
9.474554180E-1	6.819544435E-1	-3.613162339E-1	1.027717304E1	1.030610969E1
9.486514070E-1	6.699903607E-1	-3.708875179E-1	1.031067276E1	1.033907237E1
9.498473970E-1	6.484549642E-1	-3.708875179E-1	1.033938694E1	1.036633849E1
9.510433340E-1	6.197410822E-1	-3.708875179E-1	1.037527943E1	1.040038748E1
9.522393240E-1	5.790630579E-1	-3.613162339E-1	1.042074299E1	1.044307176E1
9.534353140E-1	5.503492355E-1	-3.397808075E-1	1.046381378E1	1.048378434E1
9.546312510E-1	5.335994363E-1	-3.278166950E-1	1.049252701E1	1.051119951E1
9.558272410E-1	5.120640397E-1	-3.110669553E-1	1.051406288E1	1.053112010E1
9.570232300E-1	4.713860750E-1	-2.895315289E-1	1.053320503E1	1.054772210E1
9.582191680E-1	4.331009090E-1	-2.679961324E-1	1.056670475E1	1.057897195E1
9.594151570E-1	4.139583111E-1	-2.512463629E-1	1.061216831E1	1.062321056E1
9.606110950E-1	3.924229145E-1	-2.344966233E-1	1.065523911E1	1.066504125E1
9.618070840E-1	3.708875179E-1	-2.153540403E-1	1.069591713E1	1.070451205E1
9.630030740E-1	3.541377485E-1	-1.890329868E-1	1.074377346E1	1.075127040E1
9.641990120E-1	3.421736360E-1	-1.507478207E-1	1.079641533E1	1.080288812E1
9.653950010E-1	3.302095234E-1	-1.268195957E-1	1.084905815E1	1.085482309E1
9.665909390E-1	3.182454109E-1	-1.172483116E-1	1.089212894E1	1.089740796E1
9.677869280E-1	3.086741269E-1	-1.100698411E-1	1.091844940E1	1.092336635E1
9.689829180E-1	3.086741269E-1	-1.196411327E-1	1.094477081E1	1.094977634E1
9.701788550E-1	3.014956415E-1	-1.220339537E-1	1.096869946E1	1.097352084E1
9.713748450E-1	2.943171859E-1	-1.172483116E-1	1.098305607E1	1.098762442E1
9.725708340E-1	2.991028428E-1	-1.268195957E-1	1.100698376E1	1.101177720E1
9.737667720E-1	3.158525825E-1	-1.483550072E-1	1.103569794E1	1.104121375E1
9.749627620E-1	3.230310678E-1	-1.698904037E-1	1.106441212E1	1.107043031E1
9.761586990E-1	3.326023519E-1	-1.866401732E-1	1.108594704E1	1.109250560E1
9.773546890E-1	3.469592929E-1	-2.057827413E-1	1.110269737E1	1.111002323E1
9.785506780E-1	3.541377485E-1	-2.273181528E-1	1.111705399E1	1.112501579E1
9.797466160E-1	3.565305769E-1	-2.488535494E-1	1.113858986E1	1.114707254E1
9.809426050E-1	3.493520916E-1	-2.751746178E-1	1.116969585E1	1.117854523E1
9.821385950E-1	3.397808075E-1	-3.062812984E-1	1.121037388E1	1.121970328E1
9.833345320E-1	3.541377485E-1	-3.302095234E-1	1.124626637E1	1.125668508E1
9.845305220E-1	3.684946895E-1	-3.637090325E-1	1.127976608E1	1.129164273E1
9.857265120E-1	3.661018610E-1	-3.996013701E-1	1.132044411E1	1.133340931E1
9.869224490E-1	3.708875179E-1	-4.331009090E-1	1.136112213E1	1.137542219E1
9.881184390E-1	3.661018610E-1	-4.809573591E-1	1.140180016E1	1.141781053E1
9.893143760E-1	3.469592929E-1	-5.312066078E-1	1.144008541E1	1.145766623E1
9.905103660E-1	3.349951804E-1	-5.670989752E-1	1.147119141E1	1.149008509E1
9.917063550E-1	3.278166950E-1	-5.862415433E-1	1.150229836E1	1.152189266E1
9.929022930E-1	3.134597540E-1	-6.077769399E-1	1.153819084E1	1.155843838E1
9.940982820E-1	2.919243574E-1	-6.317051649E-1	1.157408333E1	1.159498496E1
9.952942720E-1	2.775674164E-1	-6.604190469E-1	1.162193966E1	1.164399753E1
9.964902090E-1	2.679961324E-1	-6.939185858E-1	1.166501045E1	1.168870454E1
9.976861990E-1	2.464607358E-1	-7.250252366E-1	1.169611740E1	1.172115893E1
9.988821370E-1	2.249253243E-1	-7.369893789E-1	1.172961617E1	1.175489856E1
1.000078126E0	2.105683982E-1	-7.369893789E-1	1.175593758E1	1.178089813E1
1.001274116E0	1.890329868E-1	-7.441678643E-1	1.177986622E1	1.180486202E1
1.002470053E0	1.651047617E-1	-7.417750359E-1	1.179183006E1	1.181629155E1
1.003666043E0	1.483550072E-1	-7.274180651E-1	1.179422283E1	1.181756483E1
1.004862032E0	1.268195957E-1	-7.178468108E-1	1.180857944E1	1.183105810E1
1.006057970E0	1.172483116E-1	-7.130611539E-1	1.182532978E1	1.184738907E1
1.007253959E0	1.124626622E-1	-7.130611539E-1	1.183968639E1	1.186167265E1
1.008449949E0	1.028913707E-1	-7.106683254E-1	1.186122227E1	1.188293860E1
1.009645887E0	9.571290761E-2	-7.010970116E-1	1.188993549E1	1.191097242E1
1.010841876E0	8.614161611E-2	-6.939185858E-1	1.191864967E1	1.193914375E1
1.012037814E0	8.374879509E-2	-6.843472719E-1	1.194257736E1	1.196246208E1
1.013233803E0	8.135596663E-2	-6.723831892E-1	1.197846985E1	1.199760217E1
1.014429793E0	7.657032460E-2	-6.628118753E-1	1.202632618E1	1.204482063E1
1.015625730E0	7.417750359E-2	-6.484549642E-1	1.208375454E1	1.210136851E1
1.016821720E0	7.178468257E-2	-6.293123364E-1	1.215314579E1	1.216964008E1
1.018017709E0	5.742774159E-2	-5.982056856E-1	1.221775246E1	1.223252317E1
1.019213647E0	4.546362907E-2	-5.623133183E-1	1.227039433E1	1.228335622E1
1.020409637E0	4.546362907E-2	-5.383850932E-1	1.230867958E1	1.232053239E1
1.021605626E0	5.024927482E-2	-5.168496966E-1	1.234457207E1	1.235548939E1
1.022801564E0	5.742774159E-2	-4.953143001E-1	1.237089348E1	1.238093856E1
1.023997553E0	6.460621208E-2	-4.857429862E-1	1.240199947E1	1.241167640E1
1.025193491E0	7.417750359E-2	-4.594219327E-1	1.244746304E1	1.245615939E1
1.026389480E0	8.135596663E-2	-4.307080805E-1	1.248814106E1	1.249583112E1
1.027585470E0	7.896314561E-2	-4.091726840E-1	1.253121185E1	1.253813894E1
1.028781407E0	7.896314561E-2	-3.948157430E-1	1.257667542E1	1.258311882E1
1.029977397E0	7.896314561E-2	-3.900300860E-1	1.261974621E1	1.262601889E1
1.031173387E0	8.135596663E-2	-3.828516304E-1	1.266999626E1	1.267604037E1
1.032369324E0	9.332008660E-2	-3.756731451E-1	1.272263813E1	1.272852544E1
1.033565314E0	1.124626622E-1	-3.684946895E-1	1.277288723E1	1.277869651E1
1.034761251E0	1.292124242E-1	-3.613162339E-1	1.282792187E1	1.283365983E1
1.035957241E0	1.483550072E-1	-3.637090325E-1	1.288295746E1	1.288894435E1
1.037153230E0	1.770688742E-1	-3.756731451E-1	1.293799210E1	1.294465616E1
1.038349168E0	2.081755698E-1	-3.876372576E-1	1.300020504E1	1.300764893E1
1.039545157E0	2.440679073E-1	-4.019941986E-1	1.306002617E1	1.306849081E1
1.040741147E0	2.751746178E-1	-4.163511395E-1	1.311506081E1	1.312455292E1
1.041937084E0	3.086741269E-1	-4.378865361E-1	1.316291714E1	1.317381539E1
1.043133074E0	3.493520916E-1	-4.594219327E-1	1.320598793E1	1.321859420E1
1.044329064E0	3.852444589E-1	-4.833501875E-1	1.323948765E1	1.325390787E1
1.045525001E0	4.211367965E-1	-5.096712112E-1	1.328016567E1	1.329661315E1
1.046720991E0	4.546363056E-1	-5.288137794E-1	1.332562923E1	1.334386498E1
1.047916928E0	4.905286431E-1	-5.479564071E-1	1.337109280E1	1.339130304E1
1.049112918E0	5.288137794E-1	-5.742774606E-1	1.340937805E1	1.343208317E1
1.050308907E0	5.647061467E-1	-6.029912829E-1	1.345244884E1	1.347779179E1
1.051504845E0	5.982056856E-1	-6.269195080E-1	1.350269794E1	1.353047412E1
1.052700834E0	6.149554253E-1	-6.436693072E-1	1.355055428E1	1.357976441E1
1.053896824E0	6.340979934E-1	-6.628118753E-1	1.359601784E1	1.362692558E1
1.055092762E0	6.604190469E-1	-6.771687865E-1	1.364387512E1	1.367662382E1
1.056288751E0	6.747759581E-1	-6.915257573E-1	1.368215942E1	1.371623188E1
1.057484689E0	6.867401004E-1	-7.058826685E-1	1.371087360E1	1.374619719E1
1.058680678E0	6.915257573E-1	-7.202396393E-1	1.374437332E1	1.378059328E1
1.059876668E0	6.891329288E-1	-7.250252366E-1	1.377308750E1	1.380936295E1
1.061072605E0	6.915257573E-1	-7.274180651E-1	1.379701519E1	1.383347292E1
1.062268595E0	6.939185858E-1	-7.322037220E-1	1.382333660E1	1.386009668E1
1.063464584E0	6.987041831E-1	-7.393822074E-1	1.384965706E1	1.388696778E1
1.064660522E0	6.939185858E-1	-7.369893789E-1	1.387119293E1	1.390807930E1
1.065856512E0	6.795616150E-1	-7.130611539E-1	1.389751434E1	1.393237830E1
1.067052449E0	6.604190469E-1	-6.963114142E-1	1.392144203E1	1.395448140E1
1.068248439E0	6.436693072E-1	-6.819544435E-1	1.394058514E1	1.397208954E1
1.069444428E0	6.293123364E-1	-6.652047038E-1	1.395972729E1	1.398972899E1
1.070640366E0	6.101697683E-1	-6.364908218E-1	1.398126316E1	1.400903806E1
1.071836355E0	5.862415433E-1	-5.958128572E-1	1.399083424E1	1.401578092E1
1.073032345E0	5.599204898E-1	-5.551348329E-1	1.399083424E1	1.401303423E1
1.074228282E0	5.455635786E-1	-5.264210105E-1	1.399561977E1	1.401613825E1
1.075424272E0	5.359922647E-1	-4.833501875E-1	1.400997639E1	1.402855493E1
1.076620209E0	5.264210105E-1	-4.378865361E-1	1.401476192E1	1.403147945E1
1.077816199E0	5.024927258E-1	-3.996013701E-1	1.401476192E1	1.402945943E1
1.079012189E0	4.809573591E-1	-3.541377485E-1	1.401476192E1	1.402748321E1
1.080208126E0	4.618147612E-1	-3.134597540E-1	1.400519085E1	1.401630838E1
1.081404116E0	4.498506486E-1	-2.775674164E-1	1.399083424E1	1.400081612E1
1.082600105E0	4.426721931E-1	-2.344966233E-1	1.396929836E1	1.397827758E1
1.083796043E0	4.402793646E-1	-1.938186288E-1	1.396212006E1	1.397040472E1
1.084992032E0	4.331009090E-1	-1.603191197E-1	1.396690559E1	1.397453865E1
1.086188022E0	4.091726840E-1	-1.292124242E-1	1.397647667E1	1.398306183E1
1.087383959E0	3.948157430E-1	-9.810572863E-2	1.398604870E1	1.399196421E1
1.088579949E0	3.948157430E-1	-6.939185411E-2	1.398844147E1	1.399418413E1
1.089775887E0	4.019941986E-1	-4.546362907E-2	1.399801254E1	1.400385738E1
1.090971876E0	4.115654826E-1	-2.632104978E-2	1.401476192E1	1.402082846E1
1.092167866E0	4.187439680E-1	-4.785645287E-3	1.403151226E1	1.403776000E1
1.093363803E0	4.187439680E-1	1.914258115E-2	1.404347610E1	1.404973075E1
1.094559793E0	4.211367965E-1	4.307080805E-2	1.404347610E1	1.404985524E1
1.095755782E0	4.211367965E-1	5.503492057E-2	1.404108334E1	1.404750534E1
1.096951720E0	4.139583111E-1	6.221338734E-2	1.402672672E1	1.403297169E1
1.098147709E0	4.187439680E-1	7.657032460E-2	1.400997639E1	1.401644206E1
1.099343647E0	4.187439680E-1	9.332008660E-2	1.399322701E1	1.399980204E1
1.100539637E0	4.115654826E-1	1.244267747E-1	1.397169113E1	1.397830538E1
1.101735626E0	4.187439680E-1	1.603191197E-1	1.395972729E1	1.396692646E1
1.102931564E0	4.283152521E-1	1.746760458E-1	1.394776344E1	1.395543159E1
1.104127553E0	4.426721931E-1	1.818545163E-1	1.393101311E1	1.393923082E1
1.105323543E0	4.642075896E-1	1.962114573E-1	1.391904926E1	1.392817002E1
1.106519480E0	4.737788737E-1	2.129612118E-1	1.390708542E1	1.391678281E1
1.107715470E0	4.857429862E-1	2.225325108E-1	1.388076401E1	1.389104303E1
1.108911459E0	5.120640397E-1	2.273181528E-1	1.384965706E1	1.386098423E1
1.110107397E0	5.264210105E-1	2.321037948E-1	1.381615829E1	1.382813152E1
1.111303387E0	5.335994363E-1	2.273181528E-1	1.377548027E1	1.378768503E1
1.112499324E0	5.407779217E-1	2.153540403E-1	1.374198055E1	1.375430288E1
1.113695314E0	5.431707501E-1	2.081755698E-1	1.371565914E1	1.372798883E1
1.114891303E0	5.407779217E-1	2.033899277E-1	1.369412422E1	1.370630681E1
1.116087241E0	5.455635786E-1	1.890329868E-1	1.367498112E1	1.368716485E1
1.117283230E0	5.599204898E-1	1.674975902E-1	1.365105343E1	1.366355833E1
1.118479220E0	5.670989752E-1	1.483550072E-1	1.361037540E1	1.362299266E1
1.119675157E0	5.766702294E-1	1.339980662E-1	1.357209015E1	1.358499669E1
1.120871147E0	5.910272002E-1	1.148554832E-1	1.354816151E1	1.356153329E1
1.122067137E0	5.982056856E-1	8.374879509E-2	1.351226902E1	1.352576349E1
1.123263074E0	6.053841114E-1	4.785645381E-2	1.346441269E1	1.347810036E1
1.124459064E0	6.101697683E-1	2.153540403E-2	1.342134190E1	1.343522196E1
1.125655001E0	6.125625968E-1	-7.178467698E-3	1.338305664E1	1.339707018E1
1.126850991E0	6.197410822E-1	-4.067798331E-2	1.334237862E1	1.335682600E1
1.128046980E0	6.269195080E-1	-7.896314561E-2	1.329452229E1	1.330952990E1
1.129242918E0	6.317051649E-1	-1.196411327E-1	1.324666595E1	1.326225940E1
1.130438907E0	6.317051649E-1	-1.435693651E-1	1.319402409E1	1.320991806E1
1.131634845E0	6.245267391E-1	-1.722832322E-1	1.313898945E1	1.315495188E1
1.132830834E0	6.269195080E-1	-2.177468538E-1	1.308634663E1	1.310316411E1
1.134026824E0	6.364908218E-1	-2.536391914E-1	1.304327583E1	1.306125943E1
1.135222762E0	6.436693072E-1	-2.919243574E-1	1.299541950E1	1.301462478E1
1.136418751E0	6.364908218E-1	-3.302095234E-1	1.293559933E1	1.295545788E1
1.137614741E0	6.364908218E-1	-3.661018610E-1	1.287338543E1	1.289430896E1
1.138810678E0	6.436693072E-1	-4.139583111E-1	1.281595802E1	1.283878700E1
1.140006668E0	6.460621357E-1	-4.546363056E-1	1.276570892E1	1.279012958E1
1.141202657E0	6.484549642E-1	-4.905286431E-1	1.271067429E1	1.273665392E1
1.142398595E0	6.460621357E-1	-5.288137794E-1	1.265085316E1	1.267837237E1
1.143594584E0	6.484549642E-1	-5.551348329E-1	1.259342575E1	1.262232311E1
1.144790574E0	6.508477330E-1	-5.862415433E-1	1.254317665E1	1.257372508E1
1.145986512E0	6.436693072E-1	-6.221339107E-1	1.248814106E1	1.252018482E1
1.147182501E0	6.484549642E-1	-6.556333899E-1	1.243310642E1	1.246725649E1
1.148378439E0	6.532405615E-1	-6.819544435E-1	1.238525009E1	1.242119982E1
1.149574428E0	6.484549642E-1	-6.963114142E-1	1.234457207E1	1.238118746E1
1.150770418E0	6.388836503E-1	-7.178468108E-1	1.231346512E1	1.235090683E1
1.151966355E0	6.245267391E-1	-7.393822074E-1	1.228953743E1	1.232758897E1
1.153162345E0	6.125625968E-1	-7.489534616E-1	1.227757263E1	1.231563859E1
1.154358282E0	6.029912829E-1	-7.585247755E-1	1.225364494E1	1.229189866E1
1.155554272E0	6.005984545E-1	-7.609176040E-1	1.222014523E1	1.225853431E1
1.156750262E0	5.934200287E-1	-7.537391186E-1	1.219621658E1	1.223388609E1
1.157946199E0	5.814558864E-1	-7.489534616E-1	1.217946720E1	1.221631874E1
1.159142189E0	5.647061467E-1	-7.513462901E-1	1.216989613E1	1.220613723E1
1.160338178E0	5.479564071E-1	-7.369893789E-1	1.214836025E1	1.218302370E1
1.161534116E0	5.359922647E-1	-7.082754970E-1	1.211486149E1	1.214737876E1
1.162730105E0	5.192425251E-1	-6.843472719E-1	1.208614731E1	1.211663735E1
1.163926043E0	5.096712112E-1	-6.556333899E-1	1.205743313E1	1.208599659E1
1.165122032E0	5.096712112E-1	-6.269195080E-1	1.202632618E1	1.205343578E1
1.166318022E0	5.072783828E-1	-5.934200287E-1	1.199761295E1	1.202298612E1
1.167513959E0	5.000999570E-1	-5.575276613E-1	1.195693493E1	1.198036852E1
1.168709949E0	4.953143001E-1	-5.216353536E-1	1.191625690E1	1.193794866E1
1.169905939E0	4.905286431E-1	-4.785645306E-1	1.188754272E1	1.190727989E1
1.171101876E0	4.785645306E-1	-4.426721931E-1	1.185643578E1	1.187434428E1
1.172297866E0	4.594219327E-1	-4.115654826E-1	1.182532978E1	1.184140528E1
1.173493855E0	4.378865361E-1	-3.780659735E-1	1.180618668E1	1.182035204E1
1.174689793E0	4.163511395E-1	-3.493520916E-1	1.177986622E1	1.179239769E1
1.175885782E0	4.019941986E-1	-3.158525825E-1	1.174875927E1	1.175987698E1
1.177081720E0	3.924229145E-1	-2.751746178E-1	1.171047401E1	1.172027809E1
1.178277709E0	3.780659735E-1	-2.368894368E-1	1.166979599E1	1.167832132E1
1.179473699E0	3.589234054E-1	-2.105683982E-1	1.164108181E1	1.164851711E1
1.180669637E0	3.469592929E-1	-1.962114573E-1	1.160758305E1	1.161442482E1
1.181865626E0	3.469592929E-1	-1.770688742E-1	1.156211948E1	1.156867932E1
1.183061616E0	3.397808075E-1	-1.627119333E-1	1.151665497E1	1.152281510E1
1.184257553E0	3.158525825E-1	-1.435693651E-1	1.147597694E1	1.148122040E1
1.185453543E0	2.967100143E-1	-1.124626622E-1	1.142572784E1	1.143013305E1
1.186649480E0	2.847459018E-1	-8.135596663E-2	1.137547874E1	1.137933283E1
1.187845470E0	2.727817893E-1	-5.982056633E-2	1.133240795E1	1.133584837E1
1.189041459E0	2.656033039E-1	-4.307080805E-2	1.128215885E1	1.128536701E1
1.190237397E0	2.608176768E-1	-4.067798331E-2	1.123190975E1	1.123501123E1
1.191433387E0	2.608176768E-1	-4.067798331E-2	1.119601727E1	1.119912868E1
1.192629376E0	2.512463629E-1	-3.349951655E-2	1.116730309E1	1.117017928E1
1.193825314E0	2.416750938E-1	-2.632104978E-2	1.113380337E1	1.113645712E1
1.195021303E0	2.392822653E-1	-2.153540403E-2	1.109312534E1	1.109572664E1
1.196217241E0	2.536391914E-1	-2.632104978E-2	1.105484104E1	1.105778170E1
1.197413230E0	2.703889608E-1	-4.785645381E-2	1.102612686E1	1.102954550E1
1.198609220E0	2.656033039E-1	-6.221338734E-2	1.099741268E1	1.100079549E1
1.199805157E0	2.632105052E-1	-6.460621208E-2	1.095912743E1	1.096247817E1
1.201001147E0	2.703889608E-1	-7.178468257E-2	1.091605663E1	1.091964082E1
1.202197137E0	2.823530734E-1	-8.374879509E-2	1.087298584E1	1.087697376E1
1.203393074E0	2.919243574E-1	-1.004985496E-1	1.082752228E1	1.083192312E1
1.204589064E0	3.086741269E-1	-1.148554832E-1	1.078445148E1	1.078947938E1
1.205785053E0	3.278166950E-1	-1.220339537E-1	1.073898792E1	1.074468323E1
1.206980991E0	3.517449200E-1	-1.268195957E-1	1.069830990E1	1.070484201E1
1.208176980E0	3.637090325E-1	-1.268195957E-1	1.066720295E1	1.067415506E1
1.209372918E0	3.637090325E-1	-1.387837082E-1	1.063370419E1	1.064082750E1
1.210568907E0	3.613162339E-1	-1.627119333E-1	1.059302616E1	1.060043527E1
1.211764897E0	3.684946895E-1	-1.770688742E-1	1.054277611E1	1.055069997E1
1.212960834E0	3.780659735E-1	-1.890329868E-1	1.050449181E1	1.051299270E1
1.214156824E0	3.852444589E-1	-2.009970993E-1	1.047577763E1	1.048478564E1
1.215352814E0	3.972085714E-1	-2.105683982E-1	1.045184898E1	1.046151332E1
1.216548751E0	3.900300860E-1	-2.201396823E-1	1.042313576E1	1.043275342E1
1.217744741E0	3.828516304E-1	-2.416750938E-1	1.038724327E1	1.039710561E1
1.218940678E0	3.900300860E-1	-2.727817893E-1	1.036092186E1	1.037184820E1
1.220136668E0	3.972085714E-1	-2.943171859E-1	1.034417248E1	1.035597902E1
1.221332657E0	3.972085714E-1	-3.086741269E-1	1.032024384E1	1.033249666E1
1.222528595E0	3.996013701E-1	-3.134597540E-1	1.028674412E1	1.029927390E1
1.223724584E0	4.115654826E-1	-3.254238665E-1	1.025563812E1	1.026905060E1
1.224920574E0	4.235295951E-1	-3.517449200E-1	1.022692394E1	1.024173204E1
1.226116512E0	4.354937077E-1	-3.684946895E-1	1.019820976E1	1.021415319E1
1.227312501E0	4.570291340E-1	-3.708875179E-1	1.015035343E1	1.016740419E1
1.228508439E0	4.737788737E-1	-3.828516304E-1	1.010010433E1	1.011845588E1
1.229704428E0	4.785645306E-1	-3.972085714E-1	1.005942631E1	1.007863365E1
1.230900418E0	4.737788737E-1	-3.972085714E-1	1.001156998E1	1.003064178E1
1.232096355E0	4.666004181E-1	-3.996013701E-1	9.963713646E0	9.982634263E0
1.233292345E0	4.642075896E-1	-3.948157430E-1	9.906285286E0	9.925011654E0
1.234488334E0	4.642075896E-1	-3.924229145E-1	9.846465111E0	9.865209557E0
1.235684272E0	4.546363056E-1	-3.948157430E-1	9.798608780E0	9.817092628E0
1.236880262E0	4.522434771E-1	-3.900300860E-1	9.755537987E0	9.773800133E0
1.238076251E0	4.594219327E-1	-3.804588020E-1	9.710074425E0	9.728379246E0
1.239272189E0	4.570291340E-1	-3.637090325E-1	9.662218094E0	9.679856320E0
1.240468178E0	4.474578202E-1	-3.589234054E-1	9.604789734E0	9.621903676E0
1.241664168E0	4.283152521E-1	-3.493520916E-1	9.537791252E0	9.553793111E0
1.242860105E0	4.163511395E-1	-3.373879790E-1	9.477970123E0	9.493107846E0
1.244056095E0	4.187439680E-1	-3.278166950E-1	9.418149948E0	9.433152111E0
1.245252032E0	4.019941986E-1	-3.110669553E-1	9.355937004E0	9.369734212E0
1.246448022E0	3.804588020E-1	-2.871387303E-1	9.293723106E0	9.305938251E0
1.247644012E0	3.708875179E-1	-2.727817893E-1	9.236295700E0	9.247763282E0
1.248839949E0	3.661018610E-1	-2.608176768E-1	9.186046600E0	9.197038033E0
1.250035939E0	3.589234054E-1	-2.416750938E-1	9.133403778E0	9.143647928E0
1.251231876E0	3.469592929E-1	-2.344966233E-1	9.080761909E0	9.090412877E0
1.252427866E0	3.278166950E-1	-2.249253243E-1	9.030512810E0	9.039259748E0
1.253623855E0	3.110669553E-1	-2.201396823E-1	8.982656479E0	8.990736430E0
1.254819793E0	2.991028428E-1	-2.153540403E-1	8.934800148E0	8.942398647E0
1.256015782E0	2.895315289E-1	-2.057827413E-1	8.889336586E0	8.896430744E0
1.257211772E0	2.991028428E-1	-1.962114573E-1	8.846264839E0	8.853494398E0
1.258407709E0	2.991028428E-1	-1.818545163E-1	8.803194046E0	8.810150906E0
1.259603699E0	2.703889608E-1	-1.842473447E-1	8.757730484E0	8.763840511E0
1.260799689E0	2.464607358E-1	-2.009970993E-1	8.705088615E0	8.710896081E0
1.261995626E0	2.321037948E-1	-2.153540403E-1	8.647661209E0	8.653455606E0
1.263191616E0	2.201396823E-1	-2.081755698E-1	8.592626572E0	8.597966617E0
1.264387553E0	2.177468538E-1	-1.914258152E-1	8.537590981E0	8.542512352E0
1.265583543E0	2.105683982E-1	-1.890329868E-1	8.487341881E0	8.492057744E0
1.266779532E0	1.962114573E-1	-1.986042857E-1	8.453842163E0	8.458450799E0
1.267975470E0	1.794617027E-1	-2.129612118E-1	8.417949677E0	8.422555179E0
1.269171459E0	1.531406492E-1	-2.273181528E-1	8.374878883E0	8.379362858E0
1.270367449E0	1.387837082E-1	-2.225325108E-1	8.338987350E0	8.343110431E0
1.271563387E0	1.339980662E-1	-2.129612118E-1	8.298309326E0	8.302122959E0
1.272759376E0	1.316052526E-1	-2.105683982E-1	8.257631302E0	8.261363913E0
1.273955314E0	1.387837082E-1	-2.129612118E-1	8.228917122E0	8.232842182E0
1.275151303E0	1.459621787E-1	-2.201396823E-1	8.188239098E0	8.192498151E0
1.276347293E0	1.459621787E-1	-2.129612118E-1	8.152346611E0	8.156433823E0
1.277543230E0	1.339980662E-1	-1.962114573E-1	8.116454124E0	8.119931156E0
1.278739220E0	1.316052526E-1	-1.722832322E-1	8.070990562E0	8.073901790E0
1.279935209E0	1.387837082E-1	-1.531406492E-1	8.037490845E0	8.040147515E0
1.281131147E0	1.387837082E-1	-1.387837082E-1	7.999206066E0	8.001613558E0
1.282327137E0	1.459621787E-1	-1.244267747E-1	7.951349735E0	7.953662653E0
1.283523126E0	1.579262912E-1	-1.124626622E-1	7.913064480E0	7.915439219E0
1.284719064E0	1.555334777E-1	-1.028913707E-1	7.881958008E0	7.884163832E0
1.285915053E0	1.579262912E-1	-8.135596663E-2	7.846065521E0	7.848076431E0
1.287110991E0	1.674975902E-1	-5.982056633E-2	7.805387497E0	7.807413651E0
1.288306980E0	1.579262912E-1	-3.828516230E-2	7.767102242E0	7.768801947E0
1.289502970E0	1.292124242E-1	-1.196411345E-2	7.735995770E0	7.737084046E0
1.290698907E0	1.124626622E-1	7.178467698E-3	7.700103283E0	7.700927863E0
1.291894897E0	1.124626622E-1	2.392822690E-2	7.673782349E0	7.674643701E0
1.293090887E0	1.100698411E-1	5.024927482E-2	7.649854183E0	7.650811028E0
1.294286824E0	9.810572863E-2	7.417750359E-2	7.625925541E0	7.626917293E0
1.295482814E0	9.092725813E-2	9.810572863E-2	7.606783390E0	7.607959388E0
1.296678803E0	8.374879509E-2	1.292124242E-1	7.587640762E0	7.589202992E0
1.297874741E0	6.939185411E-2	1.579262912E-1	7.566105366E0	7.568071508E0
1.299070730E0	5.264209956E-2	1.770688742E-1	7.544569969E0	7.546831163E0
1.300266668E0	3.589234129E-2	2.009970993E-1	7.515855789E0	7.518628621E0
1.301462657E0	2.871387079E-2	2.368894368E-1	7.494320393E0	7.498118380E0
1.302658647E0	2.632104978E-2	2.608176768E-1	7.472784996E0	7.477381511E0
1.303854584E0	1.196411345E-2	2.751746178E-1	7.446464062E0	7.451556296E0
1.305050574E0	-1.435693540E-2	3.038884699E-1	7.415357590E0	7.421595685E0
1.306246512E0	-2.392822690E-2	3.254238665E-1	7.365108013E0	7.372332690E0
1.307442501E0	-1.914258115E-2	3.349951804E-1	7.319644451E0	7.327331240E0
1.308638491E0	-3.589234129E-2	3.517449200E-1	7.283751965E0	7.292328533E0
1.309834428E0	-5.503492057E-2	3.637090325E-1	7.252645493E0	7.261968035E0
1.311030418E0	-5.503492057E-2	3.780659735E-1	7.219145775E0	7.229248124E0
1.312226407E0	-5.264209956E-2	3.972085714E-1	7.183253765E0	7.194420094E0
1.313422345E0	-5.264209956E-2	4.115654826E-1	7.140182972E0	7.152228339E0
1.314618334E0	-5.024927482E-2	4.235295951E-1	7.097112179E0	7.109915864E0
1.315814324E0	-5.024927482E-2	4.307080805E-1	7.056434155E0	7.069745216E0
1.317010262E0	-6.221338734E-2	4.378865361E-1	7.025327206E0	7.039235574E0
1.318206251E0	-6.699903309E-2	4.498506486E-1	6.996613503E0	7.011380390E0
1.319402189E0	-6.221338734E-2	4.522434771E-1	6.972685337E0	6.987613003E0
1.320598178E0	-5.742774159E-2	4.498506486E-1	6.955935478E0	6.970703116E0
1.321794168E0	-5.264209956E-2	4.522434771E-1	6.934400082E0	6.949330892E0
1.322990105E0	-4.546362907E-2	4.546363056E-1	6.920042992E0	6.935110390E0
1.324186095E0	-2.871387079E-2	4.642075896E-1	6.898507595E0	6.914168078E0
1.325382084E0	-1.435693540E-2	4.666004181E-1	6.876972198E0	6.892798321E0
1.326578022E0	-1.435693540E-2	4.450650215E-1	6.860222340E0	6.874659231E0
1.327774012E0	-1.196411345E-2	4.259224236E-1	6.833901405E0	6.847171786E0
1.328969949E0	1.196411345E-2	4.187439680E-1	6.817151546E0	6.830010605E0
1.330165939E0	3.828516230E-2	4.091726840E-1	6.807580471E0	6.819973600E0
1.331361928E0	5.742774159E-2	3.948157430E-1	6.790830612E0	6.802540542E0
1.332557866E0	6.460621208E-2	3.852444589E-1	6.776473522E0	6.787722788E0
1.333753855E0	7.178468257E-2	3.661018610E-1	6.757331371E0	6.767622247E0
1.334949845E0	1.028913707E-1	3.469592929E-1	6.726224422E0	6.735952966E0
1.336145782E0	1.244267747E-1	3.302095234E-1	6.699903488E0	6.709189750E0
1.337341772E0	1.268195957E-1	3.110669553E-1	6.687939167E0	6.696370372E0
1.338537709E0	1.459621787E-1	2.823530734E-1	6.678368092E0	6.685927653E0
1.339733699E0	1.746760458E-1	2.488535494E-1	6.664011002E0	6.670943145E0
1.340929689E0	1.962114573E-1	2.249253243E-1	6.628118515E0	6.634835747E0
1.342125626E0	2.177468538E-1	2.033899277E-1	6.585047722E0	6.591785392E0
1.343321616E0	2.297109663E-1	1.794617027E-1	6.558726788E0	6.565201498E0
1.344517605E0	2.416750938E-1	1.531406492E-1	6.544369698E0	6.550620860E0
1.345713543E0	2.536391914E-1	1.244267747E-1	6.532405853E0	6.538512147E0
1.346909532E0	2.632105052E-1	9.332008660E-2	6.506084919E0	6.512075658E0
1.348105522E0	2.775674164E-1	7.178468257E-2	6.472585201E0	6.478931694E0
1.349301459E0	2.895315289E-1	5.264209956E-2	6.441478729E0	6.448197261E0
1.350497449E0	2.895315289E-1	3.110669367E-2	6.405586243E0	6.412201747E0
1.351693439E0	2.967100143E-1	9.571290575E-3	6.372086525E0	6.378997972E0
1.352889376E0	3.134597540E-1	-1.674975827E-2	6.338587284E0	6.346355358E0
1.354085366E0	3.206382394E-1	-4.546362907E-2	6.305087566E0	6.313398850E0
1.355281303E0	3.134597540E-1	-7.178468257E-2	6.269195557E0	6.277437613E0
1.356477293E0	3.110669553E-1	-8.614161611E-2	6.226124287E0	6.234485276E0
1.357673282E0	3.158525825E-1	-9.810572863E-2	6.195017815E0	6.203840207E0
1.358869220E0	3.230310678E-1	-1.076770201E-1	6.171089649E0	6.180476589E0
1.360065209E0	3.254238665E-1	-1.172483116E-1	6.144768715E0	6.154496764E0
1.361261199E0	3.302095234E-1	-1.435693651E-1	6.123233318E0	6.133810949E0
1.362457137E0	3.326023519E-1	-1.651047617E-1	6.104090691E0	6.115374646E0
1.363653126E0	3.349951804E-1	-1.842473447E-1	6.077769279E0	6.089782284E0
1.364849064E0	3.373879790E-1	-2.009970993E-1	6.041877270E0	6.054627274E0
1.366045053E0	3.349951804E-1	-2.033899277E-1	6.017949104E0	6.030696532E0
1.367241043E0	3.254238665E-1	-1.986042857E-1	6.003592014E0	6.015684619E0
1.368436980E0	3.134597540E-1	-1.962114573E-1	5.994020939E0	6.005417801E0
1.369632970E0	3.182454109E-1	-1.842473447E-1	5.984449387E0	5.995736959E0
1.370828959E0	3.278166950E-1	-1.698904037E-1	5.972485542E0	5.983887540E0
1.372024897E0	3.278166950E-1	-1.507478207E-1	5.965306759E0	5.976208950E0
1.373220887E0	3.158525825E-1	-1.292124242E-1	5.950950146E0	5.960726998E0
1.374416876E0	2.967100143E-1	-1.172483116E-1	5.931807518E0	5.940380832E0
1.375612814E0	2.847459018E-1	-1.052841991E-1	5.910272121E0	5.918064003E0
1.376808803E0	2.751746178E-1	-8.614161611E-2	5.883950710E0	5.891011578E0
1.378004741E0	2.751746178E-1	-6.939185411E-2	5.855237007E0	5.862110261E0
1.379200730E0	2.823530734E-1	-4.546362907E-2	5.819344521E0	5.826367723E0
1.380396720E0	2.799602449E-1	-1.674975827E-2	5.793023586E0	5.799808666E0
1.381592657E0	2.799602449E-1	1.196411345E-2	5.771488190E0	5.778286667E0
1.382788647E0	2.775674164E-1	4.307080805E-2	5.749952793E0	5.756809523E0
1.383984584E0	2.656033039E-1	7.417750359E-2	5.730810165E0	5.737441291E0
1.385180574E0	2.584248483E-1	9.810572863E-2	5.709274769E0	5.715962432E0
1.386376564E0	2.488535494E-1	1.196411327E-1	5.680561066E0	5.687267895E0
1.387572501E0	2.297109663E-1	1.579262912E-1	5.651846886E0	5.658717263E0
1.388768439E0	2.105683982E-1	1.866401732E-1	5.632704735E0	5.639728383E0
1.389964480E0	1.938186288E-1	2.129612118E-1	5.618347645E0	5.625722033E0
1.391160418E0	1.866401732E-1	2.416750938E-1	5.601597786E0	5.609914363E0
1.392356407E0	1.770688742E-1	2.656033039E-1	5.589633465E0	5.598740999E0
1.393552345E0	1.555334777E-1	2.823530734E-1	5.577669621E0	5.586977028E0
1.394748334E0	1.435693651E-1	2.943171859E-1	5.560919762E0	5.570553237E0
1.395944324E0	1.316052526E-1	3.134597540E-1	5.556134224E0	5.566525350E0
1.397140262E0	1.244267747E-1	3.254238665E-1	5.551348686E0	5.562270665E0
1.398336251E0	1.100698411E-1	3.421736360E-1	5.539384365E0	5.551033896E0
1.399532241E0	8.374879509E-2	3.541377485E-1	5.536991596E0	5.548937136E0
1.400728178E0	6.460621208E-2	3.589234054E-1	5.548955917E0	5.560927238E0
1.401924168E0	5.982056633E-2	3.684946895E-1	5.565705299E0	5.578211390E0
1.403120157E0	5.024927482E-2	3.756731451E-1	5.587240696E0	5.600081597E0
1.404316095E0	4.307080805E-2	3.756731451E-1	5.618347645E0	5.631058130E0
1.405512084E0	3.589234129E-2	3.828516304E-1	5.654240131E0	5.667300512E0
1.406708022E0	3.110669367E-2	3.828516304E-1	5.685346603E0	5.698307556E0
1.407904012E0	3.110669367E-2	3.900300860E-1	5.723631859E0	5.736989868E0
1.409100001E0	3.828516230E-2	4.067798555E-1	5.754738331E0	5.769224286E0
1.410295939E0	2.871387079E-2	4.163511395E-1	5.781059742E0	5.796104252E0
1.411491928E0	1.914258115E-2	4.211367965E-1	5.816951752E0	5.832208014E0
1.412687918E0	1.914258115E-2	4.283152521E-1	5.848058701E0	5.863753999E0
1.413883855E0	1.674975827E-2	4.354937077E-1	5.869594097E0	5.885751455E0
1.415079845E0	-2.392822644E-3	4.378865361E-1	5.891129494E0	5.907381574E0
1.416275834E0	-1.674975827E-2	4.426721931E-1	5.903093338E0	5.919691730E0
1.417471772E0	-3.589234129E-2	4.474578202E-1	5.915057659E0	5.932066577E0
1.418667762E0	-6.699903309E-2	4.594219327E-1	5.938985825E0	5.957105842E0
1.419863751E0	-7.417750359E-2	4.761717021E-1	5.970092297E0	5.989511150E0
1.421059689E0	-5.982056633E-2	4.881358147E-1	5.986842155E0	6.007007081E0
1.422255678E0	-6.221338734E-2	4.929214716E-1	5.991627693E0	6.012191322E0
1.423451616E0	-7.896314561E-2	4.977070987E-1	6.005984783E0	6.027088912E0
1.424647605E0	-7.896314561E-2	5.096712112E-1	6.020341873E0	6.042393250E0
1.425843595E0	-6.460621208E-2	5.216353536E-1	6.034698486E0	6.057545974E0
1.427039532E0	-5.742774159E-2	5.216353536E-1	6.058627129E0	6.081312693E0
1.428235522E0	-5.742774159E-2	5.072783828E-1	6.084948063E0	6.106326410E0
1.429431459E0	-5.742774159E-2	4.857429862E-1	6.101697922E0	6.121271251E0
1.430627449E0	-5.982056633E-2	4.785645306E-1	6.123233318E0	6.142197390E0
1.431823439E0	-5.503492057E-2	4.713860750E-1	6.142375946E0	6.160683074E0
1.433019376E0	-4.067798331E-2	4.570291340E-1	6.147161484E0	6.164261889E0
1.434215366E0	-3.349951655E-2	4.331009090E-1	6.144768715E0	6.160103991E0
1.435411355E0	-2.392822690E-2	4.019941986E-1	6.149554253E0	6.162725809E0
1.436607293E0	-9.571290575E-3	3.708875179E-1	6.154339790E0	6.165512746E0
1.437803282E0	7.178467698E-3	3.421736360E-1	6.161518097E0	6.171016090E0
1.438999272E0	3.110669367E-2	3.014956415E-1	6.168696880E0	6.176138636E0
1.440195209E0	5.503492057E-2	2.656033039E-1	6.175875187E0	6.181828878E0
1.441391199E0	7.657032460E-2	2.368894368E-1	6.180660725E0	6.185672689E0
1.442587137E0	1.124626622E-1	2.057827413E-1	6.190232277E0	6.194672714E0
1.443783126E0	1.459621787E-1	1.651047617E-1	6.211767673E0	6.215675520E0
1.444979116E0	1.698904037E-1	1.220339537E-1	6.238088608E0	6.241594709E0
1.446175053E0	2.057827413E-1	7.657032460E-2	6.250052929E0	6.253908471E0
1.447371043E0	2.344966233E-1	2.871387079E-2	6.252445698E0	6.256907412E0
1.448567032E0	2.560320199E-1	-1.196411345E-2	6.264409542E0	6.269650903E0
1.449762970E0	2.871387303E-1	-3.349951655E-2	6.285944939E0	6.292588866E0
1.450958959E0	3.254238665E-1	-5.503492057E-2	6.309873104E0	6.318498882E0
1.452154897E0	3.565305769E-1	-8.853443712E-2	6.340980053E0	6.351612428E0
1.453350887E0	3.804588020E-1	-1.196411327E-1	6.360122681E0	6.372615116E0
1.454546876E0	3.900300860E-1	-1.555334777E-1	6.381658077E0	6.395457290E0
1.455742814E0	3.948157430E-1	-1.962114573E-1	6.412764549E0	6.427902268E0
1.456938803E0	4.091726840E-1	-2.249253243E-1	6.436692715E0	6.453605720E0
1.458134793E0	4.259224236E-1	-2.464607358E-1	6.465406895E0	6.484106655E0
1.459330730E0	4.426721931E-1	-2.656033039E-1	6.501298904E0	6.521762893E0
1.460526720E0	4.594219327E-1	-2.919243574E-1	6.527620316E0	6.550275973E0
1.461722709E0	4.689932466E-1	-3.110669553E-1	6.549155712E0	6.573291250E0
1.462918647E0	4.666004181E-1	-3.158525825E-1	6.580262184E0	6.604341694E0
1.464114637E0	4.666004181E-1	-3.206382394E-1	6.623332977E0	6.647485582E0
1.465310574E0	4.618147612E-1	-3.302095234E-1	6.664011002E0	6.688150255E0
1.466506564E0	4.642075896E-1	-3.373879790E-1	6.697510719E0	6.722050965E0
1.467702553E0	4.881358147E-1	-3.397808075E-1	6.728617191E0	6.754851359E0
1.468898491E0	4.905286431E-1	-3.326023519E-1	6.750152588E0	6.776120028E0
1.470094480E0	4.857429862E-1	-3.206382394E-1	6.771687984E0	6.796654566E0
1.471290470E0	4.977070987E-1	-3.230310678E-1	6.800402164E0	6.826238424E0
1.472486407E0	5.144568682E-1	-3.302095234E-1	6.826723099E0	6.854039135E0
1.473682397E0	5.216353536E-1	-3.230310678E-1	6.865008354E0	6.892372031E0
1.474878334E0	5.264210105E-1	-3.062812984E-1	6.908079147E0	6.934874535E0
1.476074324E0	5.120640397E-1	-3.038884699E-1	6.946363926E0	6.971838321E0
1.477270314E0	4.881358147E-1	-3.014956415E-1	7.006184578E0	7.029637155E0
1.478466251E0	4.689932466E-1	-2.967100143E-1	7.073183537E0	7.094921905E0
1.479662241E0	4.522434771E-1	-2.919243574E-1	7.137789726E0	7.158057430E0
1.480858230E0	4.498506486E-1	-2.751746178E-1	7.207181931E0	7.226448509E0
1.482054168E0	4.498506486E-1	-2.560320199E-1	7.267002583E0	7.285413134E0
1.483250157E0	4.426721931E-1	-2.297109663E-1	7.324429989E0	7.341389546E0
1.484446095E0	4.331009090E-1	-2.057827413E-1	7.389036179E0	7.404578218E0
1.485642084E0	4.163511395E-1	-1.890329868E-1	7.439285755E0	7.453325049E0
1.486838074E0	4.091726840E-1	-1.722832322E-1	7.472784996E0	7.485961488E0
1.488034012E0	4.139583111E-1	-1.579262912E-1	7.506284714E0	7.519349201E0
1.489230001E0	4.139583111E-1	-1.387837082E-1	7.537391186E0	7.550025714E0
1.490425991E0	4.139583111E-1	-1.172483116E-1	7.563712597E0	7.575939341E0
1.491621928E0	4.187439680E-1	-1.028913707E-1	7.592426300E0	7.604661088E0
1.492817918E0	4.139583111E-1	-8.853443712E-2	7.625925541E0	7.637665886E0
1.494013855E0	4.115654826E-1	-6.460621208E-2	7.657032490E0	7.668357494E0
1.495209845E0	4.163511395E-1	-3.589234129E-2	7.695317745E0	7.706656326E0
1.496405834E0	4.187439680E-1	-7.178467698E-3	7.735995770E0	7.747323963E0
1.497601772E0	4.235295951E-1	1.914258115E-2	7.774280548E0	7.785832120E0
1.498797762E0	4.211367965E-1	3.349951655E-2	7.812565804E0	7.823979988E0
1.499993751E0	4.139583111E-1	3.349951655E-2	7.862815380E0	7.873776057E0
1.501189689E0	4.187439680E-1	3.589234129E-2	7.910671711E0	7.921828178E0
1.502385678E0	4.378865361E-1	4.546362907E-2	7.946564198E0	7.958749532E0
1.503581668E0	4.594219327E-1	5.742774159E-2	7.984848976E0	7.998261038E0
1.504777605E0	4.689932466E-1	7.178468257E-2	8.018348694E0	8.032373465E0
1.505973595E0	4.761717021E-1	8.374879509E-2	8.059026718E0	8.073516272E0
1.507169532E0	4.857429862E-1	8.614161611E-2	8.114061356E0	8.129044120E0
1.508365522E0	5.024927258E-1	8.374879509E-2	8.164310455E0	8.180188140E0
1.509561512E0	5.168496966E-1	8.135596663E-2	8.209774017E0	8.226429470E0
1.510757449E0	5.359922647E-1	8.614161611E-2	8.276773453E0	8.294557666E0
1.511953439E0	5.575276613E-1	8.374879509E-2	8.343772888E0	8.362798393E0
1.513149428E0	5.670989752E-1	8.853443712E-2	8.401200294E0	8.420784167E0
1.514345366E0	5.623133183E-1	1.004985496E-1	8.463413239E0	8.482668205E0
1.515541355E0	5.766702294E-1	1.052841991E-1	8.518448830E0	8.538594953E0
1.516737345E0	6.101697683E-1	1.052841991E-1	8.571090698E0	8.593427004E0
1.517933282E0	6.269195080E-1	1.172483116E-1	8.628518105E0	8.652057554E0
1.519129272E0	6.269195080E-1	1.268195957E-1	8.685946465E0	8.709464809E0
1.520325209E0	6.293123364E-1	1.100698411E-1	8.740981102E0	8.764296892E0
1.521521199E0	6.388836503E-1	1.004985496E-1	8.791230202E0	8.814987279E0
1.522717189E0	6.460621357E-1	1.004985496E-1	8.829515457E0	8.853690725E0
1.523913126E0	6.604190469E-1	1.076770201E-1	8.872586250E0	8.897782557E0
1.525109116E0	6.747759581E-1	1.052841991E-1	8.930013657E0	8.956090177E0
1.526305105E0	6.723831892E-1	9.810572863E-2	8.992227554E0	9.017864508E0
1.527501043E0	6.795616150E-1	1.028913707E-1	9.047262192E0	9.073331460E0
1.528697032E0	6.867401004E-1	1.172483116E-1	9.109476089E0	9.136077591E0
1.529893022E0	6.795616150E-1	1.244267747E-1	9.193224907E0	9.219146935E0
1.531088959E0	6.819544435E-1	1.244267747E-1	9.288937569E0	9.314768115E0
1.532284949E0	6.819544435E-1	1.339980662E-1	9.382257462E0	9.407963245E0
1.533480887E0	6.771687865E-1	1.507478207E-1	9.463613510E0	9.489007490E0
1.534676876E0	6.771687865E-1	1.842473447E-1	9.542576790E0	9.568347634E0
1.535872866E0	6.699903607E-1	2.057827413E-1	9.619147301E0	9.644647656E0
1.537068803E0	6.580262184E-1	2.249253243E-1	9.690931320E0	9.715849925E0
1.538264793E0	6.388836503E-1	2.560320199E-1	9.748359680E0	9.772627137E0
1.539460782E0	6.197410822E-1	2.919243574E-1	9.786644936E0	9.810592130E0
1.540656720E0	6.101697683E-1	3.278166950E-1	9.815358162E0	9.839767618E0
1.541852709E0	6.101697683E-1	3.661018610E-1	9.829715729E0	9.855437536E0
1.543048647E0	6.173482537E-1	4.091726840E-1	9.824930191E0	9.852806423E0
1.544244637E0	6.221339107E-1	4.450650215E-1	9.827322960E0	9.857048749E0
1.545440626E0	6.197410822E-1	4.737788737E-1	9.841679573E0	9.872547911E0
1.546636564E0	6.077769399E-1	4.953143001E-1	9.844072342E0	9.875246292E0
1.547832553E0	6.005984545E-1	5.120640397E-1	9.839286804E0	9.870891191E0
1.549028543E0	5.886343718E-1	5.288137794E-1	9.844072342E0	9.875823748E0
1.550224480E0	5.814558864E-1	5.359922647E-1	9.863214493E0	9.894866284E0
1.551420470E0	5.814558864E-1	5.479564071E-1	9.891928673E0	9.924142282E0
1.552616407E0	5.886343718E-1	5.599204898E-1	9.915857315E0	9.949081750E0
1.553812397E0	5.982056856E-1	5.670989752E-1	9.934999466E0	9.969135654E0
1.555008387E0	6.053841114E-1	5.694918036E-1	9.951749802E0	9.986397496E0
1.556204324E0	6.053841114E-1	5.647061467E-1	9.968499184E0	1.000281755E1
1.557400314E0	6.029912829E-1	5.718846321E-1	9.980463028E0	1.001500338E1
1.558596303E0	6.029912829E-1	5.814558864E-1	9.980463028E0	1.001555449E1
1.559792241E0	6.053841114E-1	5.790630579E-1	9.975677490E0	1.001079144E1
1.560988230E0	6.005984545E-1	5.790630579E-1	9.975677490E0	1.001050318E1
1.562184168E0	5.982056856E-1	5.718846321E-1	9.980463028E0	1.001471639E1
1.563380157E0	6.173482537E-1	5.599204898E-1	9.975677490E0	1.001043312E1
1.564576147E0	6.317051649E-1	5.383850932E-1	9.961320877E0	9.995840312E0
1.565772084E0	6.388836503E-1	5.168496966E-1	9.956535339E0	9.990390477E0
1.566968074E0	6.484549642E-1	4.977070987E-1	9.954142570E0	9.987650400E0
1.568164064E0	6.556333899E-1	4.713860750E-1	9.956535339E0	9.989226994E0
1.569360001E0	6.699903607E-1	4.474578202E-1	9.961320877E0	9.993849068E0
1.570555991E0	6.891329288E-1	4.259224236E-1	9.954142570E0	9.987055042E0
1.571751980E0	7.130611539E-1	4.019941986E-1	9.954142570E0	9.987742981E0
1.572947918E0	7.322037220E-1	3.804588020E-1	9.966106415E0	1.000020741E1
1.574143907E0	7.441678643E-1	3.445664644E-1	9.966106415E0	9.999789444E0
1.575339845E0	7.633104324E-1	3.014956415E-1	9.956535339E0	9.990302218E0
1.576535834E0	7.872386575E-1	2.560320199E-1	9.956535339E0	9.990890504E0
1.577731824E0	8.039883971E-1	2.201396823E-1	9.961320877E0	9.996137876E0
1.578927762E0	8.183453679E-1	1.890329868E-1	9.968499184E0	1.000381920E1
1.580123751E0	8.350951076E-1	1.435693651E-1	9.966106415E0	1.000206344E1
1.581319741E0	8.518448472E-1	8.853443712E-2	9.956535339E0	9.993301454E0
1.582515678E0	8.614161611E-1	3.589234129E-2	9.951749802E0	9.989026488E0
1.583711668E0	8.781659007E-1	-2.871387079E-2	9.944570541E0	9.983310227E0
1.584907657E0	8.877372146E-1	-9.571290761E-2	9.949356079E0	9.989340554E0
1.586103595E0	8.853443861E-1	-1.579262912E-1	9.954142570E0	9.994685073E0
1.587299584E0	8.901300430E-1	-2.153540403E-1	9.958928108E0	1.000094785E1
1.588495522E0	9.068797827E-1	-2.703889608E-1	9.970891953E0	1.001569905E1
1.589691512E0	9.068797827E-1	-3.302095234E-1	9.978070259E0	1.002463742E1
1.590887501E0	8.853443861E-1	-3.756731451E-1	9.990034103E0	1.003622172E1
1.592083439E0	8.662018180E-1	-4.163511395E-1	9.999606133E0	1.004568448E1
1.593279428E0	8.470591903E-1	-4.618147612E-1	1.001156998E1	1.005794788E1
1.594475366E0	8.255237937E-1	-5.072783828E-1	1.004028416E1	1.008692851E1
1.595671355E0	8.039883971E-1	-5.455635786E-1	1.008574772E1	1.013244018E1
1.596867345E0	7.824530005E-1	-5.814558864E-1	1.012403297E1	1.017085873E1
1.598063334E0	7.609176040E-1	-6.101697683E-1	1.014796066E1	1.019472454E1
1.599259272E0	7.345965505E-1	-6.125625968E-1	1.017188931E1	1.021676060E1
1.600455262E0	7.058826685E-1	-5.958128572E-1	1.020299530E1	1.024472432E1
1.601651199E0	6.747759581E-1	-5.838487148E-1	1.022453117E1	1.026339318E1
1.602847189E0	6.532405615E-1	-5.790630579E-1	1.022692394E1	1.026411275E1
1.604043178E0	6.269195080E-1	-5.647061467E-1	1.022453117E1	1.025928647E1
1.605239116E0	5.958128572E-1	-5.407779217E-1	1.023170948E1	1.026329930E1
1.606435105E0	5.670989752E-1	-5.072783828E-1	1.023649502E1	1.026473394E1
1.607631095E0	5.359922647E-1	-4.642075896E-1	1.024128056E1	1.026579777E1
1.608827032E0	5.120640397E-1	-4.235295951E-1	1.025085258E1	1.027236904E1
1.610023022E0	4.905286431E-1	-3.828516304E-1	1.025085258E1	1.026972115E1
1.611218959E0	4.785645306E-1	-3.397808075E-1	1.025324535E1	1.027002996E1
1.612414949E0	4.713860750E-1	-2.919243574E-1	1.026520920E1	1.028017240E1
1.613610939E0	4.331009090E-1	-2.440679073E-1	1.027478027E1	1.028680005E1
1.614806876E0	3.924229145E-1	-2.105683982E-1	1.028195858E1	1.029159886E1
1.616002866E0	3.708875179E-1	-1.770688742E-1	1.026999474E1	1.027821496E1
1.617198855E0	3.613162339E-1	-1.387837082E-1	1.025803089E1	1.026533039E1
1.618394793E0	3.517449200E-1	-9.332008660E-2	1.024845982E1	1.025491890E1
1.619590782E0	3.397808075E-1	-5.024927482E-2	1.022453117E1	1.023029881E1
1.620786772E0	3.206382394E-1	-7.178467698E-3	1.020060253E1	1.020564317E1
1.621982709E0	3.014956415E-1	2.871387079E-2	1.019103146E1	1.019553070E1
1.623178699E0	2.967100143E-1	5.982056633E-2	1.017906761E1	1.018356680E1
1.624374637E0	2.919243574E-1	8.853443712E-2	1.015513897E1	1.015971976E1
1.625570626E0	2.847459018E-1	1.100698411E-1	1.012881851E1	1.013341798E1
1.626766616E0	2.847459018E-1	1.268195957E-1	1.010010433E1	1.010491321E1
1.627962553E0	2.895315289E-1	1.387837082E-1	1.007617569E1	1.008128990E1
1.629158543E0	2.799602449E-1	1.555334777E-1	1.005464077E1	1.005974003E1
1.630354532E0	2.656033039E-1	1.746760458E-1	1.002831936E1	1.003335667E1
1.631550470E0	2.488535494E-1	1.818545163E-1	9.994820595E0	9.999571885E0
1.632746459E0	2.416750938E-1	1.914258152E-1	9.968499184E0	9.973265597E0
1.633942397E0	2.416750938E-1	2.081755698E-1	9.951749802E0	9.956860350E0
1.635138387E0	2.560320199E-1	2.153540403E-1	9.937392235E0	9.943022387E0
1.636334376E0	2.703889608E-1	2.129612118E-1	9.930213928E0	9.936176897E0
1.637530314E0	2.799602449E-1	2.105683982E-1	9.918250084E0	9.924434569E0
1.638726303E0	2.823530734E-1	2.009970993E-1	9.906285286E0	9.912346405E0
1.639922293E0	2.847459018E-1	1.842473447E-1	9.901499748E0	9.907306626E0
1.641118230E0	2.967100143E-1	1.651047617E-1	9.901499748E0	9.907320207E0
1.642314220E0	3.086741269E-1	1.363908947E-1	9.903892517E0	9.909640215E0
1.643510157E0	3.182454109E-1	1.004985496E-1	9.915857315E0	9.921471987E0
1.644706147E0	3.397808075E-1	7.417750359E-2	9.923035622E0	9.929128323E0
1.645902137E0	3.589234054E-1	4.307080805E-2	9.934999466E0	9.941574095E0
1.647098074E0	3.613162339E-1	0.000000000E0	9.961320877E0	9.967871540E0
1.648294064E0	3.637090325E-1	-4.307080805E-2	9.982855797E0	9.989572024E0
1.649490053E0	3.732803464E-1	-9.571290761E-2	1.000917721E1	1.001659261E1
1.650685991E0	3.828516304E-1	-1.603191197E-1	1.004267693E1	1.005125054E1
1.651881980E0	3.852444589E-1	-2.321037948E-1	1.008096218E1	1.009099024E1
1.653077918E0	3.900300860E-1	-2.919243574E-1	1.013360405E1	1.014530800E1
1.654273907E0	4.019941986E-1	-3.397808075E-1	1.017428207E1	1.018788820E1
1.655469897E0	3.972085714E-1	-3.852444589E-1	1.021974564E1	1.023471489E1
1.656665834E0	3.924229145E-1	-4.067798555E-1	1.026520920E1	1.028075802E1
1.657861824E0	3.948157430E-1	-4.331009090E-1	1.029631615E1	1.031298124E1
1.659057814E0	3.972085714E-1	-4.642075896E-1	1.033938694E1	1.035742177E1
1.660253751E0	4.091726840E-1	-4.761717021E-1	1.038963604E1	1.040858774E1
1.661449741E0	4.115654826E-1	-4.833501875E-1	1.043749237E1	1.045678060E1
1.662645730E0	3.948157430E-1	-4.881358147E-1	1.048295593E1	1.050173896E1
1.663841668E0	3.828516304E-1	-4.929214716E-1	1.051884842E1	1.053734877E1
1.665037657E0	3.780659735E-1	-4.881358147E-1	1.055952644E1	1.057756159E1
1.666233647E0	3.732803464E-1	-4.833501875E-1	1.060738277E1	1.062494870E1
1.667429584E0	3.589234054E-1	-4.809573591E-1	1.064566803E1	1.066256976E1
1.668625574E0	3.397808075E-1	-4.594219327E-1	1.067677498E1	1.069205516E1
1.669821512E0	3.254238665E-1	-4.331009090E-1	1.070788097E1	1.072157601E1
1.671017501E0	3.134597540E-1	-4.019941986E-1	1.073420238E1	1.074629970E1
1.672213491E0	3.062812984E-1	-3.661018610E-1	1.076530933E1	1.077588622E1
1.673409428E0	3.038884699E-1	-3.493520916E-1	1.079402256E1	1.080394919E1
1.674605418E0	2.895315289E-1	-3.302095234E-1	1.081316566E1	1.082208014E1
1.675801407E0	2.871387303E-1	-3.038884699E-1	1.083470058E1	1.084276411E1
1.676997345E0	2.991028428E-1	-2.871387303E-1	1.086580753E1	1.087371530E1
1.678193334E0	2.919243574E-1	-2.584248483E-1	1.089930725E1	1.090627809E1
1.679389272E0	2.656033039E-1	-2.273181528E-1	1.093280697E1	1.093839508E1
1.680585262E0	2.584248483E-1	-1.962114573E-1	1.096391296E1	1.096871323E1
1.681781251E0	2.679961324E-1	-1.866401732E-1	1.099023438E1	1.099508563E1
1.682977189E0	2.751746178E-1	-1.938186288E-1	1.100219822E1	1.100734538E1
1.684173178E0	2.727817893E-1	-1.914258152E-1	1.100937653E1	1.101441897E1
1.685369168E0	2.727817893E-1	-1.890329868E-1	1.102373409E1	1.102872870E1
1.686565105E0	2.847459018E-1	-1.914258152E-1	1.103569794E1	1.104103043E1
1.687761095E0	2.751746178E-1	-1.818545163E-1	1.103809071E1	1.104301764E1
1.688957032E0	2.775674164E-1	-1.794617027E-1	1.104766178E1	1.105260517E1
1.690153022E0	2.991028428E-1	-1.914258152E-1	1.105484104E1	1.106054324E1
1.691349012E0	3.062812984E-1	-2.177468538E-1	1.105484104E1	1.106122653E1
1.692544949E0	3.206382394E-1	-2.488535494E-1	1.105723381E1	1.106468059E1
1.693740939E0	3.445664644E-1	-2.727817893E-1	1.105244732E1	1.106118112E1
1.694936928E0	3.637090325E-1	-2.967100143E-1	1.105244732E1	1.106240990E1
1.696132866E0	3.828516304E-1	-3.206382394E-1	1.105962658E1	1.107089537E1
1.697328855E0	4.019941986E-1	-3.421736360E-1	1.105723381E1	1.106982844E1
1.698524793E0	4.091726840E-1	-3.565305769E-1	1.105723381E1	1.107054452E1
1.699720782E0	4.235295951E-1	-3.900300860E-1	1.106441212E1	1.107938249E1
1.700916772E0	4.546363056E-1	-4.378865361E-1	1.107876873E1	1.109673625E1
1.702112709E0	4.713860750E-1	-4.785645306E-1	1.109551907E1	1.111583430E1
1.703308699E0	4.761717021E-1	-5.168496966E-1	1.110748291E1	1.112969226E1
1.704504689E0	4.857429862E-1	-5.575276613E-1	1.112423229E1	1.114878143E1
1.705700626E0	4.857429862E-1	-5.982056856E-1	1.114816093E1	1.117476123E1
1.706896616E0	4.929214716E-1	-6.293123364E-1	1.117687416E1	1.120542376E1
1.708092605E0	5.048855543E-1	-6.556333899E-1	1.120319557E1	1.123371513E1
1.709288543E0	4.929214716E-1	-6.795616150E-1	1.121276665E1	1.124415010E1
1.710484532E0	4.929214716E-1	-6.963114142E-1	1.122712421E1	1.125949108E1
1.711680470E0	5.024927258E-1	-7.202396393E-1	1.124626637E1	1.128050315E1
1.712876459E0	5.048855543E-1	-7.226324677E-1	1.125344467E1	1.128791939E1
1.714072449E0	5.120640397E-1	-7.298108935E-1	1.125823021E1	1.129347515E1
1.715268387E0	5.264210105E-1	-7.609176040E-1	1.126301575E1	1.130095741E1
1.716464376E0	5.359922647E-1	-7.704889178E-1	1.127019501E1	1.130921025E1
1.717660366E0	5.383850932E-1	-7.704889178E-1	1.128215885E1	1.132124640E1
1.718856303E0	5.455635786E-1	-7.776673436E-1	1.129172993E1	1.133161819E1
1.720052293E0	5.527420044E-1	-7.824530005E-1	1.128694439E1	1.132752709E1
1.721248282E0	5.623133183E-1	-7.896314859E-1	1.128694439E1	1.132849627E1
1.722444220E0	5.718846321E-1	-7.896314859E-1	1.130369377E1	1.134566273E1
1.723640209E0	5.694918036E-1	-7.800601721E-1	1.131805134E1	1.135918575E1
1.724836147E0	5.670989752E-1	-7.728816867E-1	1.132762241E1	1.136811228E1
1.726032137E0	5.694918036E-1	-7.728816867E-1	1.132762241E1	1.136823190E1
1.727228126E0	5.575276613E-1	-7.680960894E-1	1.132044411E1	1.136016124E1
1.728424064E0	5.503492355E-1	-7.561319470E-1	1.131326580E1	1.135185460E1
1.729620053E0	5.623133183E-1	-7.441678643E-1	1.131326580E1	1.135165033E1
1.730816043E0	5.670989752E-1	-7.274180651E-1	1.132283688E1	1.136034213E1
1.732011980E0	5.599204898E-1	-7.250252366E-1	1.133001518E1	1.136698802E1
1.733207970E0	5.479564071E-1	-7.226324677E-1	1.134437180E1	1.138056349E1
1.734403959E0	5.431707501E-1	-7.154539824E-1	1.137547874E1	1.141089065E1
1.735599897E0	5.527420044E-1	-7.082754970E-1	1.140419292E1	1.143952771E1
1.736795887E0	5.503492355E-1	-7.034898400E-1	1.142333508E1	1.145820084E1
1.737991824E0	5.455635786E-1	-6.963114142E-1	1.144247818E1	1.147661954E1
1.739187814E0	5.383850932E-1	-6.915257573E-1	1.146640587E1	1.149984913E1
1.740383803E0	5.192425251E-1	-6.819544435E-1	1.148794174E1	1.151987327E1
1.741579741E0	5.096712112E-1	-6.628118753E-1	1.151665497E1	1.154696609E1
1.742775730E0	5.144568682E-1	-6.556333899E-1	1.155254745E1	1.158256766E1
1.743971668E0	5.192425251E-1	-6.508477330E-1	1.159083271E1	1.162069785E1
1.745167657E0	5.120640397E-1	-6.388836503E-1	1.161954689E1	1.164835833E1
1.746363647E0	5.048855543E-1	-6.269195080E-1	1.164586735E1	1.167365255E1
1.747559584E0	4.977070987E-1	-6.005984545E-1	1.167697430E1	1.170299789E1
1.748755574E0	4.737788737E-1	-5.718846321E-1	1.170568848E1	1.172922253E1
1.749951564E0	4.546363056E-1	-5.527420044E-1	1.172961617E1	1.175143027E1
1.751147501E0	4.331009090E-1	-5.288137794E-1	1.174875927E1	1.176862629E1
1.752343491E0	4.091726840E-1	-5.096712112E-1	1.176550865E1	1.178364888E1
1.753539480E0	3.900300860E-1	-4.977070987E-1	1.178704453E1	1.180399316E1
1.754735418E0	3.732803464E-1	-4.809573591E-1	1.181575775E1	1.183143226E1
1.755931407E0	3.661018610E-1	-4.594219327E-1	1.183729362E1	1.185186143E1
1.757127345E0	3.541377485E-1	-4.259224236E-1	1.186600780E1	1.187892944E1
1.758323334E0	3.373879790E-1	-3.924229145E-1	1.190668583E1	1.191792741E1
1.759519324E0	3.302095234E-1	-3.661018610E-1	1.194497108E1	1.195514128E1
1.760715262E0	3.134597540E-1	-3.445664644E-1	1.197368431E1	1.198274172E1
1.761911251E0	3.014956415E-1	-3.230310678E-1	1.200000572E1	1.200813832E1
1.763107241E0	2.943171859E-1	-2.919243574E-1	1.203350544E1	1.204064349E1
1.764303178E0	2.895315289E-1	-2.584248483E-1	1.206939697E1	1.207563477E1
1.765499168E0	2.847459018E-1	-2.416750938E-1	1.209811115E1	1.210387461E1
1.766695105E0	2.775674164E-1	-2.321037948E-1	1.211964703E1	1.212504680E1
1.767891095E0	2.703889608E-1	-2.225325108E-1	1.214836025E1	1.215340642E1
1.769087084E0	2.703889608E-1	-2.033899277E-1	1.217946720E1	1.218416591E1
1.770283022E0	2.703889608E-1	-1.890329868E-1	1.220100307E1	1.220546270E1
1.771479012E0	2.679961324E-1	-1.746760458E-1	1.222971630E1	1.223389940E1
1.772675001E0	2.679961324E-1	-1.555334777E-1	1.225364494E1	1.225756203E1
1.773870939E0	2.703889608E-1	-1.387837082E-1	1.227757263E1	1.228133384E1
1.775066928E0	2.727817893E-1	-1.316052526E-1	1.232303619E1	1.232675752E1
1.776262918E0	2.656033039E-1	-1.316052526E-1	1.236132145E1	1.236487497E1
1.777458855E0	2.560320199E-1	-1.220339537E-1	1.239003563E1	1.239328155E1
1.778654845E0	2.512463629E-1	-1.028913707E-1	1.241157150E1	1.241454061E1
1.779850782E0	2.536391914E-1	-8.853443712E-2	1.242592812E1	1.242883183E1
1.781046772E0	2.703889608E-1	-7.896314561E-2	1.244507027E1	1.244825768E1
1.782242762E0	2.799602449E-1	-6.699903309E-2	1.246421337E1	1.246753711E1
1.783438699E0	2.799602449E-1	-6.699903309E-2	1.247617722E1	1.247949777E1
1.784634689E0	2.775674164E-1	-6.699903309E-2	1.248574829E1	1.248901289E1
1.785830678E0	2.751746178E-1	-5.982056633E-2	1.249771309E1	1.250088525E1
1.787026616E0	2.847459018E-1	-5.024927482E-2	1.250967693E1	1.251301811E1
1.788222605E0	3.062812984E-1	-4.546362907E-2	1.251446247E1	1.251829246E1
1.789418543E0	3.062812984E-1	-4.546362907E-2	1.251685524E1	1.252068450E1
1.790614532E0	3.014956415E-1	-5.264209956E-2	1.252881908E1	1.253255674E1
1.791810522E0	3.134597540E-1	-6.699903309E-2	1.253839111E1	1.254248770E1
1.793006459E0	3.158525825E-1	-8.853443712E-2	1.254556942E1	1.254985710E1
1.794202449E0	3.158525825E-1	-1.028913707E-1	1.255274773E1	1.255714239E1
1.795398439E0	3.254238665E-1	-1.100698411E-1	1.255035496E1	1.255505578E1
1.796594376E0	3.302095234E-1	-1.244267747E-1	1.255035496E1	1.255531481E1
1.797790366E0	3.302095234E-1	-1.339980662E-1	1.255753326E1	1.256258873E1
1.798986303E0	3.230310678E-1	-1.483550072E-1	1.256471157E1	1.256973887E1
1.800182293E0	3.062812984E-1	-1.794617027E-1	1.257188988E1	1.257690064E1
1.801378282E0	2.799602449E-1	-2.177468538E-1	1.258624744E1	1.259124363E1
1.802574220E0	2.703889608E-1	-2.536391914E-1	1.260060406E1	1.260605670E1
1.803770209E0	2.727817893E-1	-2.871387303E-1	1.260538960E1	1.261160994E1
1.804966199E0	2.703889608E-1	-3.230310678E-1	1.260060406E1	1.260764379E1
1.806162137E0	2.632105052E-1	-3.517449200E-1	1.261017513E1	1.261782553E1
1.807358126E0	2.560320199E-1	-3.708875179E-1	1.261974621E1	1.262779095E1
1.808554116E0	2.536391914E-1	-3.828516304E-1	1.261496067E1	1.262331735E1
1.809750053E0	2.512463629E-1	-4.067798555E-1	1.260778236E1	1.261684472E1
1.810946043E0	2.344966233E-1	-4.402793646E-1	1.259581852E1	1.260569232E1
1.812142032E0	2.225325108E-1	-4.618147612E-1	1.258624744E1	1.259668283E1
1.813337970E0	2.344966233E-1	-4.857429862E-1	1.257188988E1	1.258345541E1
1.814533959E0	2.536391914E-1	-5.072783828E-1	1.255992603E1	1.257272469E1
1.815729897E0	2.416750938E-1	-5.288137794E-1	1.255035496E1	1.256381552E1
1.816925887E0	2.297109663E-1	-5.551348329E-1	1.252881908E1	1.254321528E1
1.818121876E0	2.344966233E-1	-5.766702294E-1	1.251446247E1	1.252993648E1
1.819317814E0	2.392822653E-1	-5.958128572E-1	1.250728416E1	1.252375368E1
1.820513803E0	2.416750938E-1	-5.982056856E-1	1.249771309E1	1.251435533E1
1.821709793E0	2.512463629E-1	-6.125625968E-1	1.248574829E1	1.250329029E1
1.822905730E0	2.584248483E-1	-6.388836503E-1	1.247856998E1	1.249758635E1
1.824101720E0	2.584248483E-1	-6.604190469E-1	1.247378445E1	1.249392793E1
1.825297657E0	2.464607358E-1	-6.843472719E-1	1.246899891E1	1.249019647E1
1.826493647E0	2.321037948E-1	-6.939185858E-1	1.246660614E1	1.248806085E1
1.827689637E0	2.225325108E-1	-6.963114142E-1	1.246421337E1	1.248563115E1
1.828885574E0	2.057827413E-1	-7.034898400E-1	1.245942783E1	1.248096897E1
1.830081564E0	1.794617027E-1	-7.082754970E-1	1.244507027E1	1.246650050E1
1.831277553E0	1.363908947E-1	-7.034898400E-1	1.243789196E1	1.245851744E1
1.832473491E0	1.100698411E-1	-7.010970116E-1	1.244267750E1	1.246289997E1
1.833669480E0	1.004985496E-1	-6.939185858E-1	1.243310642E1	1.245286145E1
1.834865470E0	7.657032460E-2	-6.747759581E-1	1.242592812E1	1.244447167E1
1.836061407E0	5.982056633E-2	-6.556333899E-1	1.243071365E1	1.244813543E1
1.837257397E0	5.024927482E-2	-6.412764788E-1	1.242592812E1	1.244256606E1
1.838453334E0	4.785645381E-2	-6.245267391E-1	1.241874981E1	1.243453540E1
1.839649324E0	4.307080805E-2	-6.173482537E-1	1.241874981E1	1.243415943E1
1.840845314E0	3.349951655E-2	-6.173482537E-1	1.241396427E1	1.242935035E1
1.842041251E0	2.632104978E-2	-6.053841114E-1	1.239721394E1	1.241201418E1
1.843237241E0	1.196411345E-2	-5.862415433E-1	1.237567902E1	1.238956228E1
1.844433230E0	2.392822644E-3	-5.670989752E-1	1.235175037E1	1.236476220E1
1.845629168E0	-1.435693540E-2	-5.479564071E-1	1.233739376E1	1.234956465E1
1.846825157E0	-3.110669367E-2	-5.383850932E-1	1.232303619E1	1.233483065E1
1.848021095E0	-2.632104978E-2	-5.288137794E-1	1.230150127E1	1.231289042E1
1.849217084E0	-1.674975827E-2	-5.072783828E-1	1.227039433E1	1.228088713E1
1.850413074E0	-1.435693540E-2	-4.857429862E-1	1.224168110E1	1.225132272E1
1.851609012E0	-1.914258115E-2	-4.642075896E-1	1.222253799E1	1.223136502E1
1.852805001E0	-2.153540403E-2	-4.378865361E-1	1.220100307E1	1.220887728E1
1.854000991E0	-2.392822690E-2	-4.211367965E-1	1.217946720E1	1.218676947E1
1.855196928E0	-3.110669367E-2	-4.115654826E-1	1.215075302E1	1.215776101E1
1.856392918E0	-3.110669367E-2	-3.948157430E-1	1.212443256E1	1.213089906E1
1.857588907E0	-3.349951655E-2	-3.828516304E-1	1.211246777E1	1.211856316E1
1.858784845E0	-4.546362907E-2	-3.661018610E-1	1.210050392E1	1.210612625E1
1.859980834E0	-5.024927482E-2	-3.445664644E-1	1.208375454E1	1.208877061E1
1.861176772E0	-5.503492057E-2	-3.349951804E-1	1.206939697E1	1.207417053E1
1.862372762E0	-6.939185411E-2	-3.230310678E-1	1.205743313E1	1.206195913E1
1.863568751E0	-8.374879509E-2	-3.062812984E-1	1.205982590E1	1.206400525E1
1.864764689E0	-8.374879509E-2	-2.991028428E-1	1.205743313E1	1.206143317E1
1.865960678E0	-8.853443712E-2	-2.991028428E-1	1.205504036E1	1.205907538E1
1.867156668E0	-1.004985496E-1	-2.967100143E-1	1.204786205E1	1.205193415E1
1.868352605E0	-9.810572863E-2	-3.062812984E-1	1.204068375E1	1.204497813E1
1.869548595E0	-9.332008660E-2	-3.182454109E-1	1.202632618E1	1.203089814E1
1.870744584E0	-9.571290761E-2	-3.254238665E-1	1.200239849E1	1.200719081E1
1.871940522E0	-9.092725813E-2	-3.230310678E-1	1.198804188E1	1.199273801E1
1.873136512E0	-8.614161611E-2	-3.302095234E-1	1.197368431E1	1.197854643E1
1.874332449E0	-9.571290761E-2	-3.349951804E-1	1.195693493E1	1.196200968E1
1.875528439E0	-1.076770201E-1	-3.397808075E-1	1.194018459E1	1.194550348E1
1.876724428E0	-1.220339537E-1	-3.517449200E-1	1.192582798E1	1.193163819E1
1.877920366E0	-1.387837082E-1	-3.493520916E-1	1.190190029E1	1.190783517E1
1.879116355E0	-1.363908947E-1	-3.637090325E-1	1.187797165E1	1.188432149E1
1.880312345E0	-1.244267747E-1	-3.900300860E-1	1.187318611E1	1.188024217E1
1.881508282E0	-1.124626622E-1	-4.043870270E-1	1.187079334E1	1.187821162E1
1.882704272E0	-1.172483116E-1	-4.043870270E-1	1.185404301E1	1.186151810E1
1.883900209E0	-1.268195957E-1	-4.139583111E-1	1.183729362E1	1.184520853E1
1.885096199E0	-1.244267747E-1	-4.354937077E-1	1.183011532E1	1.183878225E1
1.886292189E0	-1.148554832E-1	-4.570291340E-1	1.182293701E1	1.183232467E1
1.887488126E0	-1.100698411E-1	-4.833501875E-1	1.181336498E1	1.182376146E1
1.888684116E0	-1.028913707E-1	-5.048855543E-1	1.180857944E1	1.181981576E1
1.889880105E0	-1.004985496E-1	-5.312066078E-1	1.180379391E1	1.181616820E1
1.891076043E0	-1.004985496E-1	-5.599204898E-1	1.179183006E1	1.180554392E1
1.892272032E0	-1.028913707E-1	-5.742774606E-1	1.177268696E1	1.178713449E1
1.893468022E0	-1.292124242E-1	-6.005984545E-1	1.175354481E1	1.176958920E1
1.894663959E0	-1.507478207E-1	-6.245267391E-1	1.173200989E1	1.174958785E1
1.895859949E0	-1.531406492E-1	-6.388836503E-1	1.170090294E1	1.171933249E1
1.897055887E0	-1.507478207E-1	-6.628118753E-1	1.166740322E1	1.168718710E1
1.898251876E0	-1.507478207E-1	-6.795616150E-1	1.163629627E1	1.165709740E1
1.899447866E0	-1.555334777E-1	-6.987041831E-1	1.160997581E1	1.163202118E1
1.900643803E0	-1.651047617E-1	-7.178468108E-1	1.157408333E1	1.159749837E1
1.901839793E0	-1.866401732E-1	-7.369893789E-1	1.153101254E1	1.155604768E1
1.903035730E0	-1.962114573E-1	-7.513462901E-1	1.149751282E1	1.152370692E1
1.904231720E0	-1.938186288E-1	-7.561319470E-1	1.146162033E1	1.148816964E1
1.905427709E0	-1.938186288E-1	-7.585247755E-1	1.142572784E1	1.145251860E1
1.906623647E0	-2.033899277E-1	-7.537391186E-1	1.140419292E1	1.143088388E1
1.907819637E0	-2.153540403E-1	-7.322037220E-1	1.138265705E1	1.140821551E1
1.909015626E0	-2.344966233E-1	-7.106683254E-1	1.136112213E1	1.138574259E1
1.910211564E0	-2.632105052E-1	-6.987041831E-1	1.134676456E1	1.137130306E1
1.911407553E0	-2.823530734E-1	-6.723831892E-1	1.133958626E1	1.136301188E1
1.912603543E0	-3.014956415E-1	-6.340979934E-1	1.133719349E1	1.135891439E1
1.913799480E0	-3.158525825E-1	-6.053841114E-1	1.133240795E1	1.135296097E1
1.914995470E0	-3.110669553E-1	-5.623133183E-1	1.132522964E1	1.134344681E1
1.916191407E0	-3.134597540E-1	-5.120640397E-1	1.131565857E1	1.133157515E1
1.917387397E0	-3.302095234E-1	-4.737788737E-1	1.130369377E1	1.131843618E1
1.918583387E0	-3.469592929E-1	-4.331009090E-1	1.128215885E1	1.129579858E1
1.919779324E0	-3.541377485E-1	-4.019941986E-1	1.126301575E1	1.127574994E1
1.920975314E0	-3.541377485E-1	-3.780659735E-1	1.123908806E1	1.125101986E1
1.922171303E0	-3.589234054E-1	-3.445664644E-1	1.121037388E1	1.122140965E1
1.923367241E0	-3.613162339E-1	-3.086741269E-1	1.118166065E1	1.119175429E1
1.924563230E0	-3.565305769E-1	-2.727817893E-1	1.116491032E1	1.117393155E1
1.925759168E0	-3.517449200E-1	-2.464607358E-1	1.116012478E1	1.116838630E1
1.926955157E0	-3.421736360E-1	-2.225325108E-1	1.115294647E1	1.116041301E1
1.928151147E0	-3.254238665E-1	-1.914258152E-1	1.113858986E1	1.114498670E1
1.929347084E0	-3.158525825E-1	-1.770688742E-1	1.112662506E1	1.113251551E1
1.930543074E0	-3.062812984E-1	-1.818545163E-1	1.111226845E1	1.111797596E1
1.931739064E0	-2.895315289E-1	-1.890329868E-1	1.109791183E1	1.110329722E1
1.932935001E0	-2.632105052E-1	-1.842473447E-1	1.108355427E1	1.108821005E1
1.934130991E0	-2.392822653E-1	-1.770688742E-1	1.107398319E1	1.107798326E1
1.935326980E0	-2.129612118E-1	-1.866401732E-1	1.107159042E1	1.107521113E1
1.936522918E0	-1.818545163E-1	-2.057827413E-1	1.107159042E1	1.107499581E1
1.937718907E0	-1.579262912E-1	-2.297109663E-1	1.107159042E1	1.107509920E1
1.938914845E0	-1.268195957E-1	-2.440679073E-1	1.107637596E1	1.107979047E1
1.940110834E0	-9.332008660E-2	-2.536391914E-1	1.107159042E1	1.107488853E1
1.941306824E0	-6.460621208E-2	-2.703889608E-1	1.105962658E1	1.106312000E1
1.942502762E0	-4.307080805E-2	-3.014956415E-1	1.106201935E1	1.106621104E1
1.943698751E0	-2.153540403E-2	-3.349951804E-1	1.106680489E1	1.107189487E1
1.944894741E0	1.435693540E-2	-3.613162339E-1	1.106919765E1	1.107510236E1
1.946090678E0	4.785645381E-2	-3.756731451E-1	1.105962658E1	1.106610865E1
1.947286668E0	7.417750359E-2	-3.828516304E-1	1.104766178E1	1.105454244E1
1.948482657E0	1.004985496E-1	-3.924229145E-1	1.102612686E1	1.103356557E1
1.949678595E0	1.124626622E-1	-4.043870270E-1	1.100937653E1	1.101737483E1
1.950874584E0	1.244267747E-1	-4.211367965E-1	1.100459099E1	1.101334922E1
1.952070522E0	1.483550072E-1	-4.259224236E-1	1.099980545E1	1.100904805E1
1.953266512E0	1.603191197E-1	-4.187439680E-1	1.098544884E1	1.099459571E1
1.954462501E0	1.651047617E-1	-4.259224236E-1	1.096630573E1	1.097581573E1
1.955658439E0	1.818545163E-1	-4.331009090E-1	1.094716358E1	1.095723678E1
1.956854428E0	1.986042857E-1	-4.354937077E-1	1.093041420E1	1.094088904E1
1.958050418E0	2.105683982E-1	-4.354937077E-1	1.091127110E1	1.092198841E1
1.959246355E0	2.177468538E-1	-4.426721931E-1	1.089930725E1	1.091046612E1
1.960442345E0	2.225325108E-1	-4.522434771E-1	1.089212894E1	1.090378456E1
1.961638334E0	2.344966233E-1	-4.594219327E-1	1.087537861E1	1.088760383E1
1.962834272E0	2.440679073E-1	-4.642075896E-1	1.085623646E1	1.086889727E1
1.964030262E0	2.560320199E-1	-4.737788737E-1	1.082991505E1	1.084329649E1
1.965226199E0	2.679961324E-1	-4.857429862E-1	1.081077290E1	1.082499787E1
1.966422189E0	2.871387303E-1	-4.929214716E-1	1.079880905E1	1.081386597E1
1.967618178E0	3.062812984E-1	-4.929214716E-1	1.077488041E1	1.079049710E1
1.968814116E0	3.182454109E-1	-5.024927258E-1	1.074616623E1	1.076261435E1
1.970010105E0	3.110669553E-1	-5.120640397E-1	1.072941685E1	1.074613224E1
1.971206095E0	3.182454109E-1	-5.096712112E-1	1.071745300E1	1.073428357E1
1.972402032E0	3.230310678E-1	-5.096712112E-1	1.071027374E1	1.072725862E1
1.973598022E0	3.062812984E-1	-5.120640397E-1	1.070548820E1	1.072210313E1
1.974793959E0	2.967100143E-1	-5.168496966E-1	1.070070267E1	1.071728548E1
1.975989949E0	2.895315289E-1	-5.240281820E-1	1.070309544E1	1.071982677E1
1.977185939E0	2.847459018E-1	-5.288137794E-1	1.070070267E1	1.071754458E1
1.978381876E0	2.823530734E-1	-5.264210105E-1	1.069352436E1	1.071019634E1
1.979577866E0	2.703889608E-1	-5.264210105E-1	1.069591713E1	1.071227672E1
1.980773855E0	2.584248483E-1	-5.240281820E-1	1.070309544E1	1.071903171E1
1.981969793E0	2.608176768E-1	-5.096712112E-1	1.070309544E1	1.071839739E1
1.983165782E0	2.608176768E-1	-4.929214716E-1	1.070309544E1	1.071761398E1
1.984361772E0	2.464607358E-1	-4.929214716E-1	1.071027374E1	1.072444302E1
1.985557709E0	2.321037948E-1	-4.953143001E-1	1.069830990E1	1.071228468E1
1.986753699E0	2.321037948E-1	-4.857429862E-1	1.068156052E1	1.069511821E1
1.987949637E0	2.344966233E-1	-4.785645306E-1	1.067438221E1	1.068767740E1
1.989145626E0	2.297109663E-1	-4.713860750E-1	1.066481018E1	1.067769395E1
1.990341616E0	2.177468538E-1	-4.594219327E-1	1.064806080E1	1.066019141E1
1.991537553E0	1.938186288E-1	-4.450650215E-1	1.063609695E1	1.064716896E1
1.992733543E0	1.770688742E-1	-4.378865361E-1	1.063370419E1	1.064418915E1
1.993929532E0	1.746760458E-1	-4.283152521E-1	1.062891865E1	1.063897915E1
1.995125470E0	1.746760458E-1	-4.139583111E-1	1.062652493E1	1.063601924E1
1.996321459E0	1.770688742E-1	-4.115654826E-1	1.062891865E1	1.063835754E1
1.997517397E0	1.818545163E-1	-4.115654826E-1	1.063609695E1	1.064561016E1
1.998713387E0	1.794617027E-1	-4.019941986E-1	1.063848972E1	1.064759454E1
1.999909376E0	1.818545163E-1	-3.876372576E-1	1.063848972E1	1.064710277E1
