"Time (s)";"Acceleration x (m/s^2)";"Acceleration y (m/s^2)";"Acceleration z (m/s^2)";"Absolute acceleration (m/s^2)"
3.775990600E-2;8.470591903E-1;4.235295951E-1;9.693324089E0;9.739477321E0
3.895589600E-2;8.279166222E-1;4.259224236E-1;9.659825325E0;9.704590726E0
4.015188500E-2;7.992027402E-1;4.259224236E-1;9.631111145E0;9.673594824E0
4.134792700E-2;7.776673436E-1;4.187439680E-1;9.600004196E0;9.640549444E0
4.254391700E-2;7.657032609E-1;4.139583111E-1;9.554540634E0;9.594108072E0
4.373990600E-2;7.561319470E-1;4.163511395E-1;9.523433685E0;9.562472115E0
4.493589600E-2;7.393822074E-1;4.211367965E-1;9.504291534E0;9.542305792E0
4.613188500E-2;7.106683254E-1;4.283152521E-1;9.480362892E0;9.516605697E0
4.732792700E-2;6.771687865E-1;4.354937077E-1;9.451649666E0;9.485878649E0
4.852396900E-2;6.460621357E-1;4.378865361E-1;9.432506561E0;9.464740933E0
4.971995800E-2;6.293123364E-1;4.450650215E-1;9.422935486E0;9.454407970E0
5.091594800E-2;6.149554253E-1;4.594219327E-1;9.418149948E0;9.449380251E0
5.211199000E-2;6.077769399E-1;4.666004181E-1;9.413364410E0;9.444497778E0
5.330797900E-2;5.982056856E-1;4.689932466E-1;9.408578873E0;9.439235197E0
5.450396900E-2;5.790630579E-1;4.594219327E-1;9.413364410E0;9.442341450E0
5.569995800E-2;5.647061467E-1;4.426721931E-1;9.422935486E0;9.450215070E0
5.689600000E-2;5.575276613E-1;4.211367965E-1;9.418149948E0;9.444032070E0
5.809199000E-2;5.575276613E-1;4.019941986E-1;9.418149948E0;9.443197810E0
5.928797900E-2;5.623133183E-1;3.996013701E-1;9.422935486E0;9.448152766E0
6.048396900E-2;5.670989752E-1;3.924229145E-1;9.425328255E0;9.450524308E0
6.168001000E-2;5.647061467E-1;3.732803464E-1;9.432506561E0;9.456765371E0
6.287600000E-2;5.599204898E-1;3.493520916E-1;9.446864128E0;9.469889107E0
6.407199000E-2;5.623133183E-1;3.421736360E-1;9.456435204E0;9.479316738E0
6.526797900E-2;5.742774606E-1;3.326023519E-1;9.466006279E0;9.489240950E0
6.646407300E-2;5.718846321E-1;3.158525825E-1;9.475577354E0;9.498072493E0
6.766006300E-2;5.503492355E-1;3.038884699E-1;9.487542152E0;9.508348362E0
6.885605200E-2;5.455635786E-1;2.895315289E-1;9.492327690E0;9.512399965E0
7.005204200E-2;5.383850932E-1;2.895315289E-1;9.492327690E0;9.511990958E0
7.124808300E-2;5.264210105E-1;2.943171859E-1;9.504291534E0;9.523407964E0
7.244407300E-2;5.168496966E-1;2.967100143E-1;9.513862610E0;9.532510278E0
7.364006300E-2;5.144568682E-1;3.014956415E-1;9.516255379E0;9.534919083E0
7.483605200E-2;5.192425251E-1;2.943171859E-1;9.528220177E0;9.546895576E0
7.603209400E-2;5.240281820E-1;2.871387303E-1;9.535398483E0;9.554102701E0
7.722808300E-2;5.335994363E-1;2.919243574E-1;9.533005714E0;9.552389551E0
7.842412500E-2;5.407779217E-1;2.967100143E-1;9.535398483E0;9.555328452E0
7.962011500E-2;5.407779217E-1;3.062812984E-1;9.540184021E0;9.560405857E0
8.081610400E-2;5.455635786E-1;3.062812984E-1;9.556933403E0;9.577391290E0
8.201209400E-2;5.575276613E-1;3.038884699E-1;9.578469276E0;9.599492642E0
8.320813500E-2;5.670989752E-1;3.062812984E-1;9.595218658E0;9.616840988E0
8.440412500E-2;5.814558864E-1;3.086741269E-1;9.609575272E0;9.632097776E0
8.560016700E-2;5.910272002E-1;3.182454109E-1;9.623932838E0;9.647314475E0
8.679615600E-2;5.910272002E-1;3.278166950E-1;9.638289452E0;9.661956349E0
8.799214600E-2;5.958128572E-1;3.254238665E-1;9.652647018E0;9.676491519E0
8.918818800E-2;6.125625968E-1;3.206382394E-1;9.667003632E0;9.691697531E0
9.038417700E-2;6.317051649E-1;3.206382394E-1;9.686145782E0;9.712017320E0
9.158016700E-2;6.412764788E-1;3.182454109E-1;9.710074425E0;9.736429582E0
9.277615600E-2;6.364908218E-1;3.110669553E-1;9.741181374E0;9.766908302E0
9.397219800E-2;6.412764788E-1;3.110669553E-1;9.769894600E0;9.795858240E0
9.516818800E-2;6.604190469E-1;3.134597540E-1;9.781859398E0;9.809137761E0
9.636417700E-2;6.699903607E-1;3.062812984E-1;9.784252167E0;9.811946075E0
9.756016700E-2;6.819544435E-1;2.895315289E-1;9.803394318E0;9.831349374E0
9.875620800E-2;6.987041831E-1;2.775674164E-1;9.820143700E0;9.848880824E0
9.995225000E-2;7.130611539E-1;2.751746178E-1;9.822537422E0;9.852229123E0
1.011482400E-1;7.178468108E-1;2.799602449E-1;9.824930191E0;9.855096907E0
1.023442290E-1;7.250252366E-1;2.799602449E-1;9.822537422E0;9.853237069E0
1.035402710E-1;7.369893789E-1;2.799602449E-1;9.810572624E0;9.842198245E0
1.047362600E-1;7.489534616E-1;2.799602449E-1;9.803394318E0;9.835946786E0
1.059322500E-1;7.585247755E-1;2.871387303E-1;9.793823242E0;9.827348685E0
1.071282400E-1;7.633104324E-1;2.919243574E-1;9.779465675E0;9.813552443E0
1.083242810E-1;7.728816867E-1;2.919243574E-1;9.762716293E0;9.797611717E0
1.095202710E-1;7.848458290E-1;2.991028428E-1;9.748359680E0;9.784475558E0
1.107162600E-1;7.800601721E-1;3.110669553E-1;9.738788605E0;9.774930179E0
1.119122500E-1;7.680960894E-1;3.254238665E-1;9.729216576E0;9.764913081E0
1.131082920E-1;7.657032609E-1;3.565305769E-1;9.722038269E0;9.758659931E0
1.143043330E-1;7.633104324E-1;3.900300860E-1;9.707681656E0;9.745452756E0
1.155003230E-1;7.513462901E-1;4.139583111E-1;9.686145782E0;9.724057942E0
1.166963130E-1;7.465606928E-1;4.259224236E-1;9.671789169E0;9.709905690E0
1.178923020E-1;7.561319470E-1;4.331009090E-1;9.667003632E0;9.706197563E0
1.190883440E-1;7.609176040E-1;4.426721931E-1;9.667003632E0;9.707003322E0
1.202843330E-1;7.585247755E-1;4.474578202E-1;9.671789169E0;9.711801278E0
1.214803230E-1;7.633104324E-1;4.474578202E-1;9.674181938E0;9.714559048E0
1.226763130E-1;7.776673436E-1;4.522434771E-1;9.669396400E0;9.711154278E0
1.238723540E-1;7.944171429E-1;4.546363056E-1;9.667003632E0;9.710239543E0
1.250683440E-1;8.039883971E-1;4.498506486E-1;9.659825325E0;9.703658499E0
1.262643850E-1;8.207381964E-1;4.378865361E-1;9.655039787E0;9.699749950E0
1.274603750E-1;8.374879360E-1;4.259224236E-1;9.650253296E0;9.695884933E0
1.286563650E-1;8.470591903E-1;4.139583111E-1;9.640682220E0;9.686672516E0
1.298524060E-1;8.518448472E-1;3.948157430E-1;9.635896683E0;9.681530044E0
1.310483960E-1;8.638089895E-1;3.780659735E-1;9.635896683E0;9.681921541E0
1.322443850E-1;8.662018180E-1;3.541377485E-1;9.621540070E0;9.666941215E0
1.334403750E-1;8.542376757E-1;3.278166950E-1;9.602396965E0;9.645891004E0
1.346364170E-1;8.470591903E-1;3.062812984E-1;9.590433121E0;9.632638525E0
1.358324060E-1;8.398807645E-1;2.967100143E-1;9.588040352E0;9.629327823E0
1.370283960E-1;8.374879360E-1;2.871387303E-1;9.585647583E0;9.626446607E0
1.382243850E-1;8.398807645E-1;2.608176768E-1;9.576076508E0;9.616374932E0
1.394204270E-1;8.350951076E-1;2.512463629E-1;9.568898201E0;9.608554592E0
1.406164690E-1;8.374879360E-1;2.560320199E-1;9.568898201E0;9.608889177E0
1.418124580E-1;8.374879360E-1;2.488535494E-1;9.578469276E0;9.618232052E0
1.430084480E-1;8.303094506E-1;2.273181528E-1;9.583254814E0;9.621842867E0
1.442044900E-1;8.255237937E-1;2.033899277E-1;9.588040352E0;9.625662304E0
1.454004790E-1;8.303094506E-1;1.962114573E-1;9.580862045E0;9.618774883E0
1.465964690E-1;8.350951076E-1;1.986042857E-1;9.571290970E0;9.609705424E0
1.477924580E-1;8.422735929E-1;1.962114573E-1;9.568898201E0;9.607899694E0
1.489884480E-1;8.398807645E-1;1.890329868E-1;9.576076508E0;9.614695754E0
1.501844900E-1;8.350951076E-1;1.842473447E-1;9.578469276E0;9.616569274E0
1.513805310E-1;8.446664214E-1;1.794617027E-1;9.583254814E0;9.622080892E0
1.525765210E-1;8.614161611E-1;1.651047617E-1;9.595218658E0;9.635222804E0
1.537725100E-1;8.685946465E-1;1.674975902E-1;9.604789734E0;9.645439230E0
1.549685000E-1;8.733802438E-1;1.770688742E-1;9.607182503E0;9.648424850E0
1.561644900E-1;8.829515576E-1;1.842473447E-1;9.602396965E0;9.644665780E0
1.573604790E-1;8.997012973E-1;1.938186288E-1;9.616754532E0;9.660693340E0
1.585565210E-1;9.116654396E-1;2.033899277E-1;9.638289452E0;9.683445920E0
1.597525630E-1;9.164510965E-1;2.057827413E-1;9.650253296E0;9.695855704E0
1.609485520E-1;9.188438654E-1;2.105683982E-1;9.659825325E0;9.705711638E0
1.621445940E-1;9.188438654E-1;2.201396823E-1;9.671789169E0;9.717831099E0
1.633405830E-1;9.164510965E-1;2.249253243E-1;9.686145782E0;9.732003603E0
1.645365730E-1;9.116654396E-1;2.249253243E-1;9.698110580E0;9.743463147E0
1.657325630E-1;9.044869542E-1;2.297109663E-1;9.707681656E0;9.752432871E0
1.669286040E-1;8.925228715E-1;2.392822653E-1;9.714859962E0;9.758706736E0
1.681245940E-1;8.805587292E-1;2.536391914E-1;9.717252731E0;9.760364602E0
1.693206350E-1;8.662018180E-1;2.656033039E-1;9.714859962E0;9.757015671E0
1.705166250E-1;8.470591903E-1;2.679961324E-1;9.722038269E0;9.762548812E0
1.717126150E-1;8.159525394E-1;2.703889608E-1;9.741181374E0;9.779033863E0
1.729086040E-1;8.063812256E-1;2.871387303E-1;9.772287369E0;9.809704366E0
1.741046460E-1;8.135597110E-1;2.967100143E-1;9.796216011E0;9.834417338E0
1.753006350E-1;8.159525394E-1;2.991028428E-1;9.812965393E0;9.851372029E0
1.764966250E-1;8.279166222E-1;3.110669553E-1;9.841679573E0;9.881339251E0
1.776926670E-1;8.327022791E-1;3.206382394E-1;9.865608215E0;9.905878428E0
1.788886560E-1;8.374879360E-1;3.349951804E-1;9.870393753E0;9.911522620E0
1.800846460E-1;8.422735929E-1;3.541377485E-1;9.889535904E0;9.931654381E0
1.812806880E-1;8.279166222E-1;3.804588020E-1;9.927821159E0;9.969545015E0
1.824766770E-1;8.135597110E-1;4.019941986E-1;9.958928108E0;1.000018639E1
1.836726670E-1;8.159525394E-1;4.163511395E-1;9.987641335E0;1.002956162E1
1.848687080E-1;8.255237937E-1;4.307080805E-1;1.000917721E1;1.005239411E1
1.860646980E-1;8.350951076E-1;4.450650215E-1;1.003789139E1;1.008239705E1
1.872606880E-1;8.374879360E-1;4.594219327E-1;1.007378292E1;1.011897015E1
1.884567290E-1;8.422735929E-1;4.594219327E-1;1.009053326E1;1.013604236E1
1.896527190E-1;8.638089895E-1;4.426721931E-1;1.010249710E1;1.014901829E1
1.908487080E-1;8.829515576E-1;4.378865361E-1;1.011685371E1;1.016474678E1
1.920446980E-1;8.997012973E-1;4.450650215E-1;1.013360405E1;1.018319578E1
1.932407400E-1;9.164510965E-1;4.474578202E-1;1.015035343E1;1.020145950E1
1.944367290E-1;9.212366939E-1;4.402793646E-1;1.015753174E1;1.020872049E1
1.956327710E-1;9.188438654E-1;4.307080805E-1;1.016949654E1;1.022000212E1
1.968287600E-1;9.260223508E-1;4.211367965E-1;1.017906761E1;1.022977473E1
1.980247500E-1;9.332008362E-1;4.259224236E-1;1.018385315E1;1.023538659E1
1.992207920E-1;9.355936646E-1;4.283152521E-1;1.018624592E1;1.023808553E1
2.004167810E-1;9.379864931E-1;4.259224236E-1;1.017906761E1;1.023106280E1
2.016127710E-1;9.355936646E-1;4.259224236E-1;1.016471100E1;1.021655985E1
2.028088130E-1;9.260223508E-1;4.259224236E-1;1.014556789E1;1.019664039E1
2.040048020E-1;9.164510965E-1;4.139583111E-1;1.011685371E1;1.016670906E1
2.052007920E-1;9.212366939E-1;4.067798555E-1;1.009531879E1;1.014542303E1
2.063968330E-1;9.140582681E-1;4.163511395E-1;1.007617569E1;1.012611314E1
2.075928230E-1;8.949156404E-1;4.307080805E-1;1.004267693E1;1.009166702E1
2.087888130E-1;8.805587292E-1;4.354937077E-1;9.999606133E0;1.004774409E1
2.099848540E-1;8.757730722E-1;4.354937077E-1;9.956535339E0;1.000446047E1
2.111808440E-1;8.685946465E-1;4.378865361E-1;9.937392235E0;9.984886865E0
2.123768330E-1;8.518448472E-1;4.331009090E-1;9.925428391E0;9.971326129E0
2.135728750E-1;8.446664214E-1;4.163511395E-1;9.903892517E0;9.948562541E0
2.147688650E-1;8.422735929E-1;4.043870270E-1;9.887143135E0;9.931190918E0
2.159648540E-1;8.542376757E-1;4.043870270E-1;9.879964828E0;9.925067047E0
2.171608960E-1;8.709874153E-1;3.996013701E-1;9.872786522E0;9.919184142E0
2.183568850E-1;8.733802438E-1;3.852444589E-1;9.865608215E0;9.911681583E0
2.195528750E-1;8.973084688E-1;3.756731451E-1;9.853643417E0;9.901544395E0
2.207488650E-1;9.164510965E-1;3.637090325E-1;9.844072342E0;9.893327405E0
2.219449060E-1;9.140582681E-1;3.445664644E-1;9.848857880E0;9.897182938E0
2.231408960E-1;9.164510965E-1;3.278166950E-1;9.858428955E0;9.906359970E0
2.243368850E-1;9.212366939E-1;3.158525825E-1;9.863214493E0;9.911177530E0
2.255329270E-1;9.260223508E-1;3.014956415E-1;9.860821724E0;9.908795188E0
2.267289170E-1;9.284151793E-1;2.847459018E-1;9.853643417E0;9.901379882E0
2.279249060E-1;9.308080077E-1;2.560320199E-1;9.846465111E0;9.893676320E0
2.291208960E-1;9.212366939E-1;2.297109663E-1;9.836894035E0;9.882607370E0
2.303168850E-1;9.164510965E-1;2.225325108E-1;9.820143700E0;9.865324405E0
2.315129270E-1;9.140582681E-1;2.249253243E-1;9.805787086E0;9.850865663E0
2.327089690E-1;9.092726111E-1;2.129612118E-1;9.793823242E0;9.838246940E0
2.339049580E-1;8.997012973E-1;1.986042857E-1;9.779465675E0;9.822772266E0
2.351009480E-1;8.853443861E-1;1.938186288E-1;9.765109062E0;9.807076799E0
2.362969900E-1;8.853443861E-1;1.914258152E-1;9.755537987E0;9.797499678E0
2.374929790E-1;8.877372146E-1;1.938186288E-1;9.741181374E0;9.783468586E0
2.386889690E-1;8.877372146E-1;1.938186288E-1;9.724431038E0;9.766790775E0
2.398850100E-1;8.805587292E-1;1.842473447E-1;9.724431038E0;9.765955651E0
2.410810000E-1;8.709874153E-1;1.722832322E-1;9.719645500E0;9.760113178E0
2.422769900E-1;8.757730722E-1;1.698904037E-1;9.710074425E0;9.750968493E0
2.434730310E-1;8.853443861E-1;1.698904037E-1;9.700503349E0;9.742302739E0
2.446690210E-1;8.901300430E-1;1.627119333E-1;9.698110580E0;9.740233852E0
2.458650100E-1;8.853443861E-1;1.651047617E-1;9.700503349E0;9.742220460E0
2.470610000E-1;8.829515576E-1;1.651047617E-1;9.700503349E0;9.742003298E0
2.482570420E-1;8.805587292E-1;1.579262912E-1;9.705288887E0;9.746433028E0
2.494530310E-1;8.757730722E-1;1.555334777E-1;9.714859962E0;9.755494515E0
2.506490730E-1;8.662018180E-1;1.651047617E-1;9.717252731E0;9.757180218E0
2.518450630E-1;8.638089895E-1;1.698904037E-1;9.702896118E0;9.742752270E0
2.530410520E-1;8.638089895E-1;1.555334777E-1;9.693324089E0;9.732979427E0
2.542370940E-1;8.638089895E-1;1.411765367E-1;9.693324089E0;9.732760589E0
2.554330830E-1;8.398807645E-1;1.387837082E-1;9.688538551E0;9.725864480E0
2.566290730E-1;7.968099117E-1;1.459621787E-1;9.678967476E0;9.712807132E0
2.578251150E-1;7.776673436E-1;1.531406492E-1;9.671789169E0;9.704211678E0
2.590211040E-1;7.776673436E-1;1.555334777E-1;9.657432556E0;9.689941214E0
2.602170940E-1;7.728816867E-1;1.507478207E-1;9.645467758E0;9.677557506E0
2.614131350E-1;7.657032609E-1;1.483550072E-1;9.652647018E0;9.684105800E0
2.626091250E-1;7.561319470E-1;1.435693651E-1;9.657432556E0;9.688051985E0
2.638051150E-1;7.513462901E-1;1.483550072E-1;9.657432556E0;9.687751753E0
2.650011040E-1;7.513462901E-1;1.507478207E-1;9.667003632E0;9.697329806E0
2.661971460E-1;7.537391186E-1;1.579262912E-1;9.681360245E0;9.711941081E0
2.673931350E-1;7.657032609E-1;1.818545163E-1;9.698110580E0;9.729990821E0
2.685891770E-1;7.609176040E-1;2.009970993E-1;9.695717812E0;9.727607070E0
2.697851670E-1;7.537391186E-1;2.105683982E-1;9.686145782E0;9.717709701E0
2.709811560E-1;7.609176040E-1;2.057827413E-1;9.690931320E0;9.722936387E0
2.721771980E-1;7.728816867E-1;1.890329868E-1;9.707681656E0;9.740234222E0
2.733731880E-1;7.824530005E-1;1.890329868E-1;9.722038269E0;9.755305955E0
2.745691770E-1;7.896314859E-1;1.866401732E-1;9.734002113E0;9.767760725E0
2.757651670E-1;7.896314859E-1;1.770688742E-1;9.755537987E0;9.789044523E0
2.769612080E-1;7.824530005E-1;1.794617027E-1;9.765109062E0;9.798050530E0
2.781571980E-1;7.776673436E-1;1.866401732E-1;9.767501831E0;9.800188420E0
2.793531880E-1;7.968099117E-1;1.962114573E-1;9.779465675E0;9.813834820E0
2.805492290E-1;8.135597110E-1;2.033899277E-1;9.789037704E0;9.824892165E0
2.817452190E-1;8.183453679E-1;2.033899277E-1;9.798608780E0;9.834825399E0
2.829412080E-1;8.207381964E-1;2.057827413E-1;9.803394318E0;9.839842370E0
2.841372500E-1;8.327022791E-1;2.057827413E-1;9.820143700E0;9.857533257E0
2.853332400E-1;8.327022791E-1;1.986042857E-1;9.844072342E0;9.881224470E0
2.865292290E-1;8.350951076E-1;2.009970993E-1;9.853643417E0;9.891009669E0
2.877252710E-1;8.470591903E-1;2.081755698E-1;9.872786522E0;9.911244122E0
2.889212600E-1;8.518448472E-1;2.033899277E-1;9.894321442E0;9.933005784E0
2.901172500E-1;8.614161611E-1;2.033899277E-1;9.908679008E0;9.948131732E0
2.913132920E-1;8.709874153E-1;2.081755698E-1;9.918250084E0;9.958596330E0
2.925092810E-1;8.781659007E-1;2.057827413E-1;9.920642853E0;9.961559943E0
2.937053230E-1;8.973084688E-1;2.057827413E-1;9.932606697E0;9.975178436E0
2.949013130E-1;9.308080077E-1;2.009970993E-1;9.949356079E0;9.994823149E0
2.960973020E-1;9.619147182E-1;2.081755698E-1;9.951749802E0;1.000029705E1
2.972932920E-1;9.738788009E-1;2.105683982E-1;9.951749802E0;1.000150504E1
2.984893330E-1;9.810572863E-1;2.057827413E-1;9.954142570E0;1.000448771E1
2.996853230E-1;9.882357717E-1;2.081755698E-1;9.956535339E0;1.000762424E1
3.008813130E-1;9.930213690E-1;2.249253243E-1;9.961320877E0;1.001322108E1
3.020773540E-1;9.834501147E-1;2.321037948E-1;9.956535339E0;1.000767916E1
3.032733440E-1;9.786644578E-1;2.297109663E-1;9.949356079E0;1.000001188E1
3.044693330E-1;9.786644578E-1;2.249253243E-1;9.939785004E0;9.990380445E0
3.056653750E-1;9.834501147E-1;2.201396823E-1;9.932606697E0;9.983602126E0
3.068613650E-1;9.834501147E-1;2.177468538E-1;9.920642853E0;9.971646927E0
3.080573540E-1;9.738788009E-1;2.273181528E-1;9.908679008E0;9.959017680E0
3.092533960E-1;9.738788009E-1;2.344966233E-1;9.899106979E0;9.949660676E0
3.104493850E-1;9.738788009E-1;2.368894368E-1;9.887143135E0;9.937814443E0
3.116453750E-1;9.786644578E-1;2.416750938E-1;9.877572060E0;9.928878122E0
3.128414170E-1;9.786644578E-1;2.440679073E-1;9.860821724E0;9.912273116E0
3.140374060E-1;9.738788009E-1;2.321037948E-1;9.839286804E0;9.890089833E0
3.152333960E-1;9.619147182E-1;2.201396823E-1;9.810572624E0;9.860074879E0
3.164294380E-1;9.427721500E-1;2.081755698E-1;9.791430473E0;9.838915952E0
3.176254270E-1;9.260223508E-1;1.986042857E-1;9.777072906E0;9.822836437E0
3.188214170E-1;9.116654396E-1;1.986042857E-1;9.762716293E0;9.807201791E0
3.200174580E-1;8.829515576E-1;1.842473447E-1;9.750752449E0;9.792380909E0
3.212134480E-1;8.542376757E-1;1.746760458E-1;9.734002113E0;9.772974515E0
3.224094380E-1;8.398807645E-1;1.722832322E-1;9.719645500E0;9.757386426E0
3.236054790E-1;8.255237937E-1;1.722832322E-1;9.702896118E0;9.739474530E0
3.248014690E-1;8.063812256E-1;1.579262912E-1;9.688538551E0;9.723320968E0
3.259974580E-1;7.872386575E-1;1.411765367E-1;9.681360245E0;9.714340518E0
3.271934480E-1;7.704889178E-1;1.316052526E-1;9.674181938E0;9.705708078E0
3.283894900E-1;7.633104324E-1;1.268195957E-1;9.671789169E0;9.702691985E0
3.295854790E-1;7.585247755E-1;1.220339537E-1;9.667003632E0;9.697484794E0
3.307815210E-1;7.369893789E-1;1.124626622E-1;9.659825325E0;9.688551311E0
3.319775100E-1;7.226324677E-1;1.100698411E-1;9.652647018E0;9.680284475E0
3.331735000E-1;7.298108935E-1;1.100698411E-1;9.650253296E0;9.678436237E0
3.343694900E-1;7.441678643E-1;1.124626622E-1;9.650253296E0;9.679556929E0
3.355655310E-1;7.561319470E-1;1.076770201E-1;9.647860527E0;9.678044359E0
3.367615210E-1;7.704889178E-1;9.810572863E-2;9.631111145E0;9.662379613E0
3.379575630E-1;7.800601721E-1;9.571290761E-2;9.619147301E0;9.651199388E0
3.391535520E-1;7.944171429E-1;8.853443712E-2;9.621540070E0;9.654686440E0
3.403495420E-1;8.183453679E-1;7.896314561E-2;9.621540070E0;9.656601764E0
3.415455310E-1;8.470591903E-1;7.896314561E-2;9.619147301E0;9.656694012E0
3.427415730E-1;8.733802438E-1;8.374879509E-2;9.621540070E0;9.661461599E0
3.439375630E-1;8.757730722E-1;7.417750359E-2;9.614361763E0;9.654451454E0
3.451335520E-1;8.829515576E-1;6.699903309E-2;9.607182503E0;9.647903812E0
3.463295940E-1;9.044869542E-1;7.417750359E-2;9.611968994E0;9.654716303E0
3.475255830E-1;9.164510965E-1;8.135596663E-2;9.619147301E0;9.663047977E0
3.487216250E-1;9.355936646E-1;9.092725813E-2;9.623932838E0;9.669730428E0
3.499176150E-1;9.571290612E-1;8.853443712E-2;9.631111145E0;9.678958429E0
3.511136040E-1;9.738788009E-1;8.374879509E-2;9.645467758E0;9.694869883E0
3.523095940E-1;9.834501147E-1;9.332008660E-2;9.662218094E0;9.712586744E0
3.535056350E-1;9.762716293E-1;9.571290761E-2;9.667003632E0;9.716646874E0
3.547016250E-1;9.690931439E-1;7.657032460E-2;9.671789169E0;9.720520062E0
3.558976150E-1;9.690931439E-1;6.460621208E-2;9.683753014E0;9.732337228E0
3.570936560E-1;9.714859724E-1;6.221338734E-2;9.710074425E0;9.758749963E0
3.582896460E-1;9.714859724E-1;5.982056633E-2;9.729216576E0;9.777781889E0
3.594856350E-1;9.667003751E-1;5.742774159E-2;9.741181374E0;9.789199258E0
3.606816770E-1;9.714859724E-1;4.546362907E-2;9.750752449E0;9.799133903E0
3.618776670E-1;9.786644578E-1;3.349951655E-2;9.760323524E0;9.809323200E0
3.630736560E-1;9.738788009E-1;2.632104978E-2;9.762716293E0;9.811205947E0
3.642696980E-1;9.595218897E-1;1.914258115E-2;9.755537987E0;9.802630775E0
3.654656880E-1;9.595218897E-1;1.435693540E-2;9.753145218E0;9.800241325E0
3.666616770E-1;9.690931439E-1;7.178467698E-3;9.745966911E0;9.794032065E0
3.678577190E-1;9.619147182E-1;9.571290575E-3;9.738788605E0;9.786182863E0
3.690537080E-1;9.427721500E-1;2.153540403E-2;9.745966911E0;9.791483756E0
3.702496980E-1;9.332008362E-1;3.589234129E-2;9.745966911E0;9.790608924E0
3.714457400E-1;9.236295223E-1;5.503492057E-2;9.738788605E0;9.782644010E0
3.726417290E-1;9.116654396E-1;6.939185411E-2;9.731609344E0;9.774465179E0
3.738377190E-1;8.877372146E-1;7.896314561E-2;9.734002113E0;9.774717883E0
3.750337600E-1;8.614161611E-1;9.092725813E-2;9.736394882E0;9.774849916E0
3.762297500E-1;8.446664214E-1;1.172483116E-1;9.736394882E0;9.773668392E0
3.774257400E-1;8.350951076E-1;1.363908947E-1;9.736394882E0;9.773094270E0
3.786217810E-1;8.350951076E-1;1.483550072E-1;9.753145218E0;9.789955806E0
3.798177710E-1;8.207381964E-1;1.555334777E-1;9.765109062E0;9.800773278E0
3.810137600E-1;8.159525394E-1;1.674975902E-1;9.772287369E0;9.807723202E0
3.822098020E-1;8.231309652E-1;1.770688742E-1;9.786644936E0;9.822795787E0
3.834057920E-1;8.255237937E-1;1.842473447E-1;9.805787086E0;9.842199805E0
3.846017810E-1;8.303094506E-1;1.914258152E-1;9.829715729E0;9.866578380E0
3.857978230E-1;8.303094506E-1;1.914258152E-1;9.844072342E0;9.880881433E0
3.869938130E-1;8.207381964E-1;1.914258152E-1;9.853643417E0;9.889617972E0
3.881898020E-1;8.183453679E-1;1.962114573E-1;9.863214493E0;9.899049864E0
3.893858440E-1;8.255237937E-1;1.986042857E-1;9.872786522E0;9.909230389E0
3.905818330E-1;8.350951076E-1;1.962114573E-1;9.875179291E0;9.912368476E0
3.917778230E-1;8.566305041E-1;1.890329868E-1;9.868000984E0;9.906916408E0
3.929738130E-1;8.757730722E-1;1.818545163E-1;9.868000984E0;9.908455630E0
3.941698540E-1;8.805587292E-1;1.674975902E-1;9.875179291E0;9.915775569E0
3.953658440E-1;8.805587292E-1;1.507478207E-1;9.875179291E0;9.915506775E0
3.965618850E-1;8.901300430E-1;1.435693651E-1;9.872786522E0;9.913871966E0
3.977578750E-1;8.949156404E-1;1.363908947E-1;9.872786522E0;9.914201440E0
3.989538650E-1;8.949156404E-1;1.411765367E-1;9.872786522E0;9.914268431E0
4.001499060E-1;8.949156404E-1;1.555334777E-1;9.872786522E0;9.914483263E0
4.013458960E-1;8.949156404E-1;1.531406492E-1;9.887143135E0;9.928742389E0
4.025418850E-1;8.973084688E-1;1.411765367E-1;9.901499748E0;9.943077520E0
4.037379270E-1;8.997012973E-1;1.411765367E-1;9.903892517E0;9.945676459E0
4.049339170E-1;8.997012973E-1;1.435693651E-1;9.911071777E0;9.952859808E0
4.061299060E-1;9.044869542E-1;1.411765367E-1;9.923035622E0;9.965172523E0
4.073259480E-1;9.068797827E-1;1.387837082E-1;9.942177773E0;9.984417395E0
4.085219380E-1;9.044869542E-1;1.459621787E-1;9.954142570E0;9.996217081E0
4.097179270E-1;9.020941257E-1;1.531406492E-1;9.951749802E0;9.993725531E0
4.109139170E-1;8.949156404E-1;1.435693651E-1;9.961320877E0;1.000246968E1
4.121099580E-1;8.853443861E-1;1.316052526E-1;9.982855797E0;1.002290200E1
4.133059480E-1;8.805587292E-1;1.292124242E-1;9.990034103E0;1.002959924E1
4.145019380E-1;8.829515576E-1;1.172483116E-1;9.978070259E0;1.001774609E1
4.156979790E-1;8.973084688E-1;9.332008660E-2;9.963713646E0;1.000447204E1
4.168939690E-1;9.284151793E-1;7.896314561E-2;9.961320877E0;1.000480402E1
4.180899580E-1;9.427721500E-1;6.699903309E-2;9.956535339E0;1.000129512E1
4.192860000E-1;9.355936646E-1;4.546362907E-2;9.946963310E0;9.990970000E0
4.204819900E-1;9.284151793E-1;3.110669367E-2;9.937392235E0;9.980715746E0
4.216779790E-1;9.236295223E-1;1.674975827E-2;9.925428391E0;9.968324874E0
4.228740210E-1;9.260223508E-1;0.000000000E0;9.915857315E0;9.959003147E0
4.240700100E-1;9.427721500E-1;-1.196411345E-2;9.903892517E0;9.948670738E0
4.252660520E-1;9.475577474E-1;-2.871387079E-2;9.887143135E0;9.932486574E0
4.264620420E-1;9.427721500E-1;-4.785645381E-2;9.863214493E0;9.908284902E0
4.276580310E-1;9.403793216E-1;-5.742774159E-2;9.839286804E0;9.884289354E0
4.288540210E-1;9.355936646E-1;-6.699903309E-2;9.829715729E0;9.874367609E0
4.300500630E-1;9.236295223E-1;-8.135596663E-2;9.827322960E0;9.870966865E0
4.312460520E-1;9.164510965E-1;-9.810572863E-2;9.817750931E0;9.860919870E0
4.324420420E-1;9.068797827E-1;-1.076770201E-1;9.810572624E0;9.852987389E0
4.336380830E-1;8.805587292E-1;-1.052841991E-1;9.798608780E0;9.838658570E0
4.348340730E-1;8.470591903E-1;-1.004985496E-1;9.784252167E0;9.821364452E0
4.360300630E-1;8.231309652E-1;-9.332008660E-2;9.772287369E0;9.807336725E0
4.372261040E-1;8.015955687E-1;-9.092725813E-2;9.760323524E0;9.793607023E0
4.384220940E-1;7.848458290E-1;-8.853443712E-2;9.750752449E0;9.782688518E0
4.396180830E-1;7.752745152E-1;-7.896314561E-2;9.738788605E0;9.769917566E0
4.408141250E-1;7.489534616E-1;-6.939185411E-2;9.717252731E0;9.746319673E0
4.420101150E-1;7.202396393E-1;-5.503492057E-2;9.698110580E0;9.724974180E0
4.432061040E-1;7.010970116E-1;-2.632104978E-2;9.693324089E0;9.718681069E0
4.444021460E-1;7.010970116E-1;-4.785645287E-3;9.688538551E0;9.713873542E0
4.455981350E-1;6.987041831E-1;1.196411345E-2;9.681360245E0;9.706547628E0
4.467941250E-1;6.819544435E-1;3.349951655E-2;9.681360245E0;9.705406754E0
4.479901670E-1;6.867401004E-1;4.546362907E-2;9.681360245E0;9.705792863E0
4.491861560E-1;6.915257573E-1;5.264209956E-2;9.683753014E0;9.708555582E0
4.503821460E-1;6.891329288E-1;5.503492057E-2;9.681360245E0;9.706012014E0
4.515781880E-1;6.987041831E-1;6.699903309E-2;9.690931320E0;9.716317526E0
4.527741770E-1;7.202396393E-1;7.896314561E-2;9.698110580E0;9.725139030E0
4.539701670E-1;7.345965505E-1;7.178468257E-2;9.695717812E0;9.723771337E0
4.551662080E-1;7.465606928E-1;6.460621208E-2;9.700503349E0;9.729403479E0
4.563621980E-1;7.537391186E-1;5.982056633E-2;9.722038269E0;9.751396273E0
4.575581880E-1;7.633104324E-1;5.982056633E-2;9.743574142E0;9.773610305E0
4.587542290E-1;7.800601721E-1;5.982056633E-2;9.757930756E0;9.789243332E0
4.599502190E-1;7.992027402E-1;5.024927482E-2;9.769894600E0;9.802657318E0
4.611462080E-1;8.231309652E-1;4.307080805E-2;9.784252167E0;9.818909825E0
4.623422500E-1;8.422735929E-1;4.067798331E-2;9.796216011E0;9.832442608E0
4.635382400E-1;8.662018180E-1;2.871387079E-2;9.808179855E0;9.846396404E0
4.647342290E-1;8.877372146E-1;9.571290575E-3;9.815358162E0;9.855426161E0
4.659302710E-1;9.020941257E-1;0.000000000E0;9.810572624E0;9.851959654E0
4.671262600E-1;9.116654396E-1;-2.392822644E-3;9.820143700E0;9.862371007E0
4.683222500E-1;9.212366939E-1;4.785645287E-3;9.836894035E0;9.879938472E0
4.695182920E-1;9.355936646E-1;4.785645287E-3;9.846465111E0;9.890815618E0
4.707142810E-1;9.475577474E-1;0.000000000E0;9.858428955E0;9.903862234E0
4.719102710E-1;9.523434043E-1;4.785645287E-3;9.856036186E0;9.901940727E0
4.731063130E-1;9.595218897E-1;-2.392822644E-3;9.851250648E0;9.897869838E0
4.743023020E-1;9.690931439E-1;-4.785645287E-3;9.856036186E0;9.903565708E0
4.754982920E-1;9.714859724E-1;1.196411345E-2;9.858428955E0;9.906187440E0
4.766943330E-1;9.762716293E-1;1.914258115E-2;9.856036186E0;9.904288063E0
4.778903230E-1;9.786644578E-1;2.632104978E-2;9.846465111E0;9.895016528E0
4.790863130E-1;9.762716293E-1;2.871387079E-2;9.851250648E0;9.899548986E0
4.802823540E-1;9.786644578E-1;2.632104978E-2;9.868000984E0;9.916446962E0
4.814783440E-1;9.786644578E-1;3.110669367E-2;9.872786522E0;9.921222982E0
4.826743330E-1;9.714859724E-1;3.828516230E-2;9.872786522E0;9.920542548E0
4.838703750E-1;9.595218897E-1;3.828516230E-2;9.872786522E0;9.919378091E0
4.850663650E-1;9.403793216E-1;2.871387079E-2;9.872786522E0;9.917512363E0
4.862623540E-1;9.403793216E-1;1.674975827E-2;9.870393753E0;9.915102958E0
4.874583960E-1;9.475577474E-1;0.000000000E0;9.858428955E0;9.903862234E0
4.886543850E-1;9.499505758E-1;-9.571290575E-3;9.846465111E0;9.892187467E0
4.898503750E-1;9.499505758E-1;-2.153540403E-2;9.846465111E0;9.892206278E0
4.910463650E-1;9.475577474E-1;-3.828516230E-2;9.844072342E0;9.889645682E0
4.922424060E-1;9.499505758E-1;-5.264209956E-2;9.839286804E0;9.885177899E0
4.934383960E-1;9.499505758E-1;-7.178468257E-2;9.834501266E0;9.880535122E0
4.946344380E-1;9.427721500E-1;-9.332008660E-2;9.836894035E0;9.882409232E0
4.958304270E-1;9.427721500E-1;-1.076770201E-1;9.841679573E0;9.887318670E0
4.970264170E-1;9.451649189E-1;-1.124626622E-1;9.832108498E0;9.878073804E0
4.982224060E-1;9.451649189E-1;-1.076770201E-1;9.822537422E0;9.868493931E0
4.994184480E-1;9.523434043E-1;-1.124626622E-1;9.820143700E0;9.866855025E0
5.006144380E-1;9.571290612E-1;-1.292124242E-1;9.815358162E0;9.862760655E0
5.018104270E-1;9.523434043E-1;-1.292124242E-1;9.808179855E0;9.855153265E0
5.030064690E-1;9.547362328E-1;-1.124626622E-1;9.798608780E0;9.845654023E0
5.042024580E-1;9.571290612E-1;-1.076770201E-1;9.784252167E0;9.831545191E0
5.053985000E-1;9.523434043E-1;-1.196411327E-1;9.769894600E0;9.816929889E0
5.065944900E-1;9.427721500E-1;-1.268195957E-1;9.760323524E0;9.806570136E0
5.077904790E-1;9.284151793E-1;-1.124626622E-1;9.743574142E0;9.788352245E0
5.089864690E-1;9.236295223E-1;-1.004985496E-1;9.719645500E0;9.763949001E0
5.101825100E-1;9.164510965E-1;-1.076770201E-1;9.705288887E0;9.749056843E0
5.113785000E-1;9.020941257E-1;-1.100698411E-1;9.698110580E0;9.740597416E0
5.125744900E-1;8.901300430E-1;-1.100698411E-1;9.688538551E0;9.729965371E0
5.137705310E-1;8.829515576E-1;-1.028913707E-1;9.681360245E0;9.722084461E0
5.149665210E-1;8.733802438E-1;-8.614161611E-2;9.669396400E0;9.709142093E0
5.161625100E-1;8.638089895E-1;-7.657032460E-2;9.655039787E0;9.693906451E0
5.173585520E-1;8.638089895E-1;-6.221338734E-2;9.645467758E0;9.684269965E0
5.185545420E-1;8.662018180E-1;-5.503492057E-2;9.645467758E0;9.684440237E0
5.197505310E-1;8.566305041E-1;-5.024927482E-2;9.643074989E0;9.681179477E0
5.209465730E-1;8.470591903E-1;-4.067798331E-2;9.628718376E0;9.665990975E0
5.221425630E-1;8.470591903E-1;-3.589234129E-2;9.611968994E0;9.649287304E0
5.233385520E-1;8.494520187E-1;-2.871387079E-2;9.602396965E0;9.639938832E0
5.245345940E-1;8.350951076E-1;-2.392822690E-2;9.595218658E0;9.631520000E0
5.257305830E-1;8.207381964E-1;-2.153540403E-2;9.595218658E0;9.630280165E0
5.269265730E-1;8.183453679E-1;-2.392822690E-2;9.597611427E0;9.632466289E0
5.281226150E-1;8.207381964E-1;-2.153540403E-2;9.595218658E0;9.630280165E0
5.293186040E-1;8.087740541E-1;0.000000000E0;9.600004196E0;9.634012458E0
5.305145940E-1;7.872386575E-1;7.178467698E-3;9.619147301E0;9.651310327E0
5.317106350E-1;7.752745152E-1;2.392822644E-3;9.643074989E0;9.674189969E0
5.329066250E-1;7.728816867E-1;2.392822644E-3;9.655039787E0;9.685925104E0
5.341026670E-1;7.752745152E-1;-4.785645287E-3;9.643074989E0;9.674190856E0
5.352986560E-1;7.728816867E-1;-9.571290575E-3;9.647860527E0;9.678773190E0
5.364946460E-1;7.657032609E-1;-1.674975827E-2;9.669396400E0;9.699680860E0
5.376906350E-1;7.585247755E-1;-2.392822690E-2;9.674181938E0;9.703902749E0
5.388866770E-1;7.585247755E-1;-1.914258115E-2;9.674181938E0;9.703892129E0
5.400826670E-1;7.609176040E-1;-2.153540403E-2;9.683753014E0;9.713626089E0
5.412786560E-1;7.657032609E-1;-3.349951655E-2;9.693324089E0;9.723577305E0
5.424746980E-1;7.704889178E-1;-5.503492057E-2;9.714859962E0;9.745521336E0
5.436706880E-1;7.704889178E-1;-6.939185411E-2;9.745966911E0;9.776622087E0
5.448667290E-1;7.752745152E-1;-8.614161611E-2;9.779465675E0;9.810525972E0
5.460627190E-1;7.752745152E-1;-9.810572863E-2;9.810572624E0;9.841646738E0
5.472587080E-1;7.776673436E-1;-1.028913707E-1;9.851250648E0;9.882433530E0
5.484546980E-1;7.824530005E-1;-1.028913707E-1;9.887143135E0;9.918589552E0
5.496507400E-1;7.896314859E-1;-1.004985496E-1;9.906285286E0;9.938214428E0
5.508467290E-1;8.087740541E-1;-1.028913707E-1;9.923035622E0;9.956472169E0
5.520427190E-1;8.207381964E-1;-1.052841991E-1;9.939785004E0;9.974167728E0
5.532387600E-1;8.255237937E-1;-1.148554832E-1;9.958928108E0;9.993744563E0
5.544347500E-1;8.374879360E-1;-1.196411327E-1;9.975677490E0;1.001148548E1
5.556307400E-1;8.614161611E-1;-1.100698411E-1;9.980463028E0;1.001817326E1
5.568267810E-1;8.877372146E-1;-9.571290761E-2;9.978070259E0;1.001794013E1
5.580227710E-1;9.044869542E-1;-7.896314561E-2;9.970891953E0;1.001214353E1
5.592187600E-1;9.116654396E-1;-7.178468257E-2;9.963713646E0;1.000559226E1
5.604148020E-1;9.092726111E-1;-6.699903309E-2;9.942177773E0;9.983895252E0
5.616107920E-1;8.997012973E-1;-5.982056633E-2;9.923035622E0;9.963918751E0
5.628067810E-1;8.757730722E-1;-5.982056633E-2;9.913464546E0;9.952252825E0
5.640028230E-1;8.614161611E-1;-6.939185411E-2;9.903892517E0;9.941526041E0
5.651988130E-1;8.518448472E-1;-7.657032460E-2;9.887143135E0;9.924066809E0
5.663948020E-1;8.566305041E-1;-8.374879509E-2;9.868000984E0;9.905466829E0
5.675908440E-1;8.614161611E-1;-9.332008660E-2;9.848857880E0;9.886897793E0
5.687868330E-1;8.494520187E-1;-1.100698411E-1;9.829715729E0;9.866964853E0
5.699828230E-1;8.374879360E-1;-1.196411327E-1;9.805787086E0;9.842213188E0
5.711788650E-1;8.183453679E-1;-1.220339537E-1;9.784252167E0;9.819173687E0
5.723748540E-1;8.087740541E-1;-1.244267747E-1;9.757930756E0;9.792181071E0
5.735708440E-1;8.111668825E-1;-1.387837082E-1;9.731609344E0;9.766343894E0
5.747668850E-1;8.063812256E-1;-1.483550072E-1;9.700503349E0;9.735092456E0
5.759628750E-1;7.968099117E-1;-1.411765367E-1;9.671789169E0;9.705583063E0
5.771588650E-1;7.992027402E-1;-1.363908947E-1;9.657432556E0;9.691405010E0
5.783549060E-1;7.968099117E-1;-1.268195957E-1;9.640682220E0;9.674385920E0
5.795508960E-1;8.015955687E-1;-1.196411327E-1;9.623932838E0;9.657999417E0
5.807468850E-1;8.087740541E-1;-1.148554832E-1;9.609575272E0;9.644233726E0
5.819429270E-1;8.015955687E-1;-1.076770201E-1;9.595218658E0;9.629245604E0
5.831389170E-1;7.896314859E-1;-1.004985496E-1;9.585647583E0;9.618641142E0
5.843349060E-1;7.848458290E-1;-1.004985496E-1;9.571290970E0;9.603941574E0
5.855309480E-1;7.824530005E-1;-1.004985496E-1;9.573683739E0;9.606131010E0
5.867269380E-1;7.896314859E-1;-1.052841991E-1;9.580862045E0;9.613923246E0
5.879229270E-1;8.015955687E-1;-1.148554832E-1;9.585647583E0;9.619791413E0
5.891189690E-1;8.111668825E-1;-1.244267747E-1;9.585647583E0;9.620712724E0
5.903149580E-1;8.039883971E-1;-1.316052526E-1;9.585647583E0;9.620205656E0
5.915109480E-1;8.063812256E-1;-1.339980662E-1;9.597611427E0;9.632359590E0
5.927069900E-1;8.135597110E-1;-1.387837082E-1;9.611968994E0;9.647335812E0
5.939029790E-1;8.111668825E-1;-1.459621787E-1;9.619147301E0;9.654392340E0
5.950989690E-1;8.111668825E-1;-1.483550072E-1;9.633503914E0;9.668733039E0
5.962950100E-1;8.159525394E-1;-1.435693651E-1;9.647860527E0;9.683367362E0
5.974910000E-1;8.255237937E-1;-1.411765367E-1;9.657432556E0;9.693679586E0
5.986869900E-1;8.398807645E-1;-1.387837082E-1;9.657432556E0;9.694878245E0
5.998830310E-1;8.518448472E-1;-1.363908947E-1;9.643074989E0;9.681587544E0
6.010790210E-1;8.733802438E-1;-1.435693651E-1;9.628718376E0;9.669313460E0
6.022750100E-1;8.901300430E-1;-1.483550072E-1;9.623932838E0;9.666148353E0
6.034710520E-1;9.068797827E-1;-1.531406492E-1;9.616754532E0;9.660634075E0
6.046670420E-1;9.164510965E-1;-1.435693651E-1;9.614361763E0;9.659008587E0
6.058630310E-1;9.116654396E-1;-1.244267747E-1;9.604789734E0;9.648761668E0
6.070590730E-1;9.140582681E-1;-1.244267747E-1;9.585647583E0;9.629933755E0
6.082550630E-1;9.140582681E-1;-1.244267747E-1;9.580862045E0;9.625170236E0
6.094510520E-1;9.116654396E-1;-1.196411327E-1;9.568898201E0;9.612973559E0
6.106470940E-1;9.092726111E-1;-1.244267747E-1;9.556933403E0;9.600897602E0
6.118430830E-1;9.068797827E-1;-1.244267747E-1;9.561718941E0;9.605435027E0
6.130390730E-1;8.997012973E-1;-1.196411327E-1;9.568898201E0;9.611846295E0
6.142351150E-1;8.805587292E-1;-1.148554832E-1;9.578469276E0;9.619545163E0
6.154311040E-1;8.662018180E-1;-1.028913707E-1;9.600004196E0;9.639552520E0
6.166270940E-1;8.638089895E-1;-9.571290761E-2;9.628718376E0;9.667861423E0
6.178231350E-1;8.542376757E-1;-9.332008660E-2;9.655039787E0;9.693205040E0
6.190191250E-1;8.518448472E-1;-9.092725813E-2;9.676574707E0;9.714422550E0
6.202151150E-1;8.494520187E-1;-8.853443712E-2;9.698110580E0;9.735643580E0
6.214111560E-1;8.303094506E-1;-8.135596663E-2;9.719645500E0;9.755385242E0
6.226071460E-1;8.087740541E-1;-6.939185411E-2;9.755537987E0;9.789251867E0
6.238031350E-1;8.183453679E-1;-6.699903309E-2;9.789037704E0;9.823412706E0
6.249991770E-1;8.279166222E-1;-6.699903309E-2;9.801001549E0;9.836135733E0
6.261951670E-1;8.231309652E-1;-7.178468257E-2;9.805787086E0;9.840536470E0
6.273911560E-1;8.183453679E-1;-7.417750359E-2;9.812965393E0;9.847308325E0
6.285871980E-1;8.183453679E-1;-7.657032460E-2;9.812965393E0;9.847326640E0
6.297831880E-1;8.255237937E-1;-7.178468257E-2;9.810572624E0;9.845505461E0
6.309791770E-1;8.207381964E-1;-6.221338734E-2;9.803394318E0;9.837887062E0
6.321752190E-1;8.135597110E-1;-5.742774159E-2;9.796216011E0;9.830108112E0
6.333712080E-1;8.135597110E-1;-5.742774159E-2;9.781859398E0;9.815801069E0
6.345671980E-1;8.111668825E-1;-5.503492057E-2;9.774680138E0;9.808434755E0
6.357632400E-1;8.087740541E-1;-5.503492057E-2;9.765109062E0;9.798698858E0
6.369592290E-1;7.968099117E-1;-5.264209956E-2;9.760323524E0;9.792935848E0
6.381552190E-1;7.920243144E-1;-4.307080805E-2;9.760323524E0;9.792500851E0
6.393512600E-1;7.944171429E-1;-4.546362907E-2;9.755537987E0;9.787935786E0
6.405472500E-1;7.944171429E-1;-5.503492057E-2;9.760323524E0;9.792754604E0
6.417432400E-1;7.872386575E-1;-5.503492057E-2;9.774680138E0;9.806484862E0
6.429392290E-1;7.800601721E-1;-5.742774159E-2;9.786644936E0;9.817851644E0
6.441352710E-1;7.824530005E-1;-5.264209956E-2;9.796216011E0;9.827555750E0
6.453312600E-1;7.872386575E-1;-5.503492057E-2;9.805787086E0;9.837491242E0
6.465273020E-1;7.944171429E-1;-6.939185411E-2;9.820143700E0;9.852468529E0
6.477232920E-1;8.111668825E-1;-8.135596663E-2;9.832108498E0;9.865848570E0
6.489192810E-1;8.207381964E-1;-8.374879509E-2;9.832108498E0;9.866660152E0
6.501153230E-1;8.183453679E-1;-8.135596663E-2;9.832108498E0;9.866441377E0
6.513113130E-1;8.183453679E-1;-7.896314561E-2;9.839286804E0;9.873575296E0
6.525073020E-1;8.231309652E-1;-8.135596663E-2;9.841679573E0;9.876376876E0
6.537033440E-1;8.279166222E-1;-8.135596663E-2;9.829715729E0;9.864855601E0
6.548993330E-1;8.350951076E-1;-7.178468257E-2;9.812965393E0;9.848696700E0
6.560953230E-1;8.446664214E-1;-7.657032460E-2;9.805787086E0;9.842397308E0
6.572913650E-1;8.494520187E-1;-8.135596663E-2;9.796216011E0;9.833312548E0
6.584873540E-1;8.446664214E-1;-8.614161611E-2;9.791430473E0;9.828173404E0
6.596833440E-1;8.398807645E-1;-8.614161611E-2;9.779465675E0;9.815842754E0
6.608793850E-1;8.374879360E-1;-9.092725813E-2;9.760323524E0;9.796610083E0
6.620753750E-1;8.327022791E-1;-9.571290761E-2;9.753145218E0;9.789095754E0
6.632713650E-1;8.327022791E-1;-9.092725813E-2;9.753145218E0;9.789050132E0
6.644673540E-1;8.303094506E-1;-8.374879509E-2;9.757930756E0;9.793550953E0
6.656633960E-1;8.207381964E-1;-6.699903309E-2;9.762716293E0;9.797383808E0
6.668593850E-1;8.207381964E-1;-5.024927482E-2;9.767501831E0;9.802052244E0
6.680553750E-1;8.183453679E-1;-3.589234129E-2;9.774680138E0;9.808942308E0
6.692514170E-1;8.231309652E-1;-1.914258115E-2;9.774680138E0;9.809295735E0
6.704474060E-1;8.255237937E-1;0.000000000E0;9.767501831E0;9.802325314E0
6.716433960E-1;8.255237937E-1;1.435693540E-2;9.774680138E0;9.809488644E0
6.728394380E-1;8.255237937E-1;2.392822690E-2;9.791430473E0;9.826198289E0
6.740354270E-1;8.183453679E-1;2.392822690E-2;9.805787086E0;9.839904577E0
6.752314170E-1;8.231309652E-1;1.435693540E-2;9.827322960E0;9.861745650E0
6.764274580E-1;8.374879360E-1;1.674975827E-2;9.851250648E0;9.886799580E0
6.776234480E-1;8.470591903E-1;2.871387079E-2;9.865608215E0;9.901947244E0
6.788194380E-1;8.590233326E-1;3.349951655E-2;9.875179291E0;9.912527898E0
6.800154790E-1;8.781659007E-1;2.632104978E-2;9.894321442E0;9.933250472E0
6.812114690E-1;8.973084688E-1;2.392822690E-2;9.911071777E0;9.951636992E0
6.824074580E-1;9.020941257E-1;2.871387079E-2;9.923035622E0;9.963996901E0
6.836035000E-1;8.997012973E-1;2.871387079E-2;9.927821159E0;9.968546528E0
6.847994900E-1;9.092726111E-1;1.674975827E-2;9.923035622E0;9.964622079E0
6.859954790E-1;9.212366939E-1;1.196411345E-2;9.927821159E0;9.970479084E0
6.871915210E-1;9.284151793E-1;9.571290575E-3;9.930213928E0;9.973524704E0
6.883875100E-1;9.260223508E-1;9.571290575E-3;9.932606697E0;9.975684678E0
6.895835000E-1;9.188438654E-1;1.196411345E-2;9.937392235E0;9.979788656E0
6.907795420E-1;9.164510965E-1;9.571290575E-3;9.937392235E0;9.979566055E0
6.919755310E-1;9.212366939E-1;7.178467698E-3;9.930213928E0;9.972857025E0
6.931715730E-1;9.260223508E-1;1.196411345E-2;9.925428391E0;9.968539977E0
6.943675630E-1;9.260223508E-1;2.392822690E-2;9.915857315E0;9.959031893E0
6.955635520E-1;9.092726111E-1;2.632104978E-2;9.906285286E0;9.947962487E0
6.967595940E-1;8.877372146E-1;2.632104978E-2;9.903892517E0;9.943634001E0
6.979555830E-1;8.733802438E-1;3.110669367E-2;9.911071777E0;9.949527851E0
6.991515730E-1;8.614161611E-1;2.632104978E-2;9.911071777E0;9.948470957E0
7.003475630E-1;8.494520187E-1;2.392822690E-2;9.899106979E0;9.935515099E0
7.015436040E-1;8.446664214E-1;3.349951655E-2;9.891928673E0;9.927982496E0
7.027395940E-1;8.422735929E-1;4.067798331E-2;9.887143135E0;9.923037785E0
7.039356350E-1;8.327022791E-1;5.982056633E-2;9.875179291E0;9.910405522E0
7.051316250E-1;8.279166222E-1;7.417750359E-2;9.853643417E0;9.888641809E0
7.063276150E-1;8.255237937E-1;7.178468257E-2;9.829715729E0;9.864580776E0
7.075236560E-1;8.183453679E-1;6.221338734E-2;9.810572624E0;9.844841028E0
7.087196460E-1;8.183453679E-1;4.785645381E-2;9.793823242E0;9.828069652E0
7.099156350E-1;8.135597110E-1;5.982056633E-2;9.791430473E0;9.825353358E0
7.111116770E-1;8.039883971E-1;7.178468257E-2;9.796216011E0;9.829414963E0
7.123076670E-1;8.039883971E-1;6.221338734E-2;9.791430473E0;9.824580325E0
7.135036560E-1;7.944171429E-1;4.785645381E-2;9.784252167E0;9.816566574E0
7.146996980E-1;7.872386575E-1;4.067798331E-2;9.772287369E0;9.804029775E0
7.158956880E-1;7.848458290E-1;3.589234129E-2;9.765109062E0;9.796664036E0
7.170916770E-1;7.848458290E-1;2.632104978E-2;9.772287369E0;9.803788869E0
7.182877190E-1;7.968099117E-1;1.196411345E-2;9.777072906E0;9.809495593E0
7.194837080E-1;8.063812256E-1;2.392822644E-3;9.784252167E0;9.817425674E0
7.206796980E-1;8.015955687E-1;-4.785645287E-3;9.791430473E0;9.824188978E0
7.218756880E-1;8.063812256E-1;-7.178467698E-3;9.793823242E0;9.826966771E0
7.230717290E-1;8.159525394E-1;-1.914258115E-2;9.798608780E0;9.832541839E0
7.242677190E-1;8.159525394E-1;-2.392822690E-2;9.801001549E0;9.834936831E0
7.254637080E-1;8.231309652E-1;-1.914258115E-2;9.803394318E0;9.837908882E0
7.266597500E-1;8.231309652E-1;-1.674975827E-2;9.808179855E0;9.842673276E0
7.278557400E-1;8.207381964E-1;-2.392822644E-3;9.817750931E0;9.851997272E0
7.290517290E-1;8.183453679E-1;2.392822644E-3;9.829715729E0;9.863721720E0
7.302477710E-1;8.159525394E-1;0.000000000E0;9.841679573E0;9.875446084E0
7.314437600E-1;8.135597110E-1;4.785645287E-3;9.848857880E0;9.882403748E0
7.326397500E-1;8.135597110E-1;1.674975827E-2;9.856036186E0;9.889570732E0
7.338357920E-1;8.111668825E-1;1.196411345E-2;9.872786522E0;9.906061203E0
7.350317810E-1;8.087740541E-1;7.178467698E-3;9.887143135E0;9.920169675E0
7.362278230E-1;8.207381964E-1;1.435693540E-2;9.891928673E0;9.925929185E0
7.374238130E-1;8.350951076E-1;2.632104978E-2;9.901499748E0;9.936688276E0
7.386198020E-1;8.398807645E-1;3.589234129E-2;9.911071777E0;9.946659325E0
7.398157920E-1;8.231309652E-1;4.067798331E-2;9.906285286E0;9.940507404E0
7.410118330E-1;8.135597110E-1;4.546362907E-2;9.887143135E0;9.920662564E0
7.422078230E-1;8.231309652E-1;5.503492057E-2;9.872786522E0;9.907193706E0
7.434038650E-1;8.279166222E-1;5.742774159E-2;9.851250648E0;9.886146025E0
7.445998540E-1;8.231309652E-1;5.503492057E-2;9.824930191E0;9.859504383E0
7.457958440E-1;8.255237937E-1;5.264209956E-2;9.808179855E0;9.843000193E0
7.469918330E-1;8.327022791E-1;4.546362907E-2;9.793823242E0;9.829264150E0
7.481878750E-1;8.374879360E-1;3.349951655E-2;9.781859398E0;9.817702457E0
7.493838650E-1;8.374879360E-1;3.110669367E-2;9.767501831E0;9.803389500E0
7.505798540E-1;8.398807645E-1;2.153540403E-2;9.748359680E0;9.784496917E0
7.517758960E-1;8.350951076E-1;1.196411345E-2;9.741181374E0;9.776918816E0
7.529718850E-1;8.350951076E-1;1.196411345E-2;9.743574142E0;9.779302841E0
7.541678750E-1;8.422735929E-1;2.392822644E-3;9.738788605E0;9.775143683E0
7.553639170E-1;8.303094506E-1;-1.196411345E-2;9.729216576E0;9.764589705E0
7.565599060E-1;8.111668825E-1;-2.392822690E-2;9.731609344E0;9.765387074E0
7.577558960E-1;8.063812256E-1;-4.067798331E-2;9.731609344E0;9.765046124E0
7.589519380E-1;8.111668825E-1;-5.264209956E-2;9.724431038E0;9.758346269E0
7.601479270E-1;8.159525394E-1;-7.417750359E-2;9.714859962E0;9.749347924E0
7.613439170E-1;8.183453679E-1;-9.092725813E-2;9.714859962E0;9.749690303E0
7.625399580E-1;8.183453679E-1;-8.853443712E-2;9.722038269E0;9.756820978E0
7.637359480E-1;8.135597110E-1;-9.092725813E-2;9.714859962E0;9.749289782E0
7.649319380E-1;8.063812256E-1;-1.004985496E-1;9.710074425E0;9.744018472E0
7.661279790E-1;8.111668825E-1;-1.052841991E-1;9.705288887E0;9.739697575E0
7.673239690E-1;8.183453679E-1;-1.100698411E-1;9.690931320E0;9.726045155E0
7.685199580E-1;8.135597110E-1;-1.100698411E-1;9.681360245E0;9.716106780E0
7.697160000E-1;8.039883971E-1;-1.172483116E-1;9.681360245E0;9.715394006E0
7.709119900E-1;8.111668825E-1;-1.268195957E-1;9.671789169E0;9.706574095E0
7.721079790E-1;8.207381964E-1;-1.268195957E-1;9.671789169E0;9.707378644E0
7.733040210E-1;8.350951076E-1;-1.244267747E-1;9.671789169E0;9.708572068E0
7.745000100E-1;8.542376757E-1;-1.220339537E-1;9.667003632E0;9.705440408E0
7.756960000E-1;8.566305041E-1;-1.220339537E-1;9.664610863E0;9.703268070E0
7.768920420E-1;8.662018180E-1;-1.220339537E-1;9.671789169E0;9.711266839E0
7.780880310E-1;8.685946465E-1;-1.124626622E-1;9.674181938E0;9.713748024E0
7.792840210E-1;8.590233326E-1;-9.332008660E-2;9.671789169E0;9.710310781E0
7.804800630E-1;8.590233326E-1;-7.178468257E-2;9.681360245E0;9.719661019E0
7.816760520E-1;8.638089895E-1;-5.982056633E-2;9.686145782E0;9.724770670E0
7.828720420E-1;8.685946465E-1;-5.264209956E-2;9.688538551E0;9.727538595E0
7.840680830E-1;8.614161611E-1;-5.742774159E-2;9.693324089E0;9.731693976E0
7.852640730E-1;8.518448472E-1;-5.264209956E-2;9.700503349E0;9.737975974E0
7.864600630E-1;8.470591903E-1;-2.632104978E-2;9.710074425E0;9.746986581E0
7.876561040E-1;8.422735929E-1;-1.674975827E-2;9.719645500E0;9.756085998E0
7.888520940E-1;8.446664214E-1;-1.914258115E-2;9.726823807E0;9.763448631E0
7.900480830E-1;8.494520187E-1;-1.674975827E-2;9.731609344E0;9.768626808E0
7.912441250E-1;8.470591903E-1;-1.435693540E-2;9.748359680E0;9.785102547E0
7.924401150E-1;8.566305041E-1;-1.196411345E-2;9.769894600E0;9.807384945E0
7.936361040E-1;8.685946465E-1;-4.785645287E-3;9.774680138E0;9.813197815E0
7.948321460E-1;8.805587292E-1;4.785645287E-3;9.765109062E0;9.804731591E0
7.960281350E-1;8.925228715E-1;7.178467698E-3;9.760323524E0;9.801049123E0
7.972241770E-1;9.020941257E-1;2.392822644E-3;9.760323524E0;9.801923017E0
7.984201670E-1;9.164510965E-1;2.392822644E-3;9.765109062E0;9.808019338E0
7.996161560E-1;9.140582681E-1;1.435693540E-2;9.772287369E0;9.814953340E0
8.008121460E-1;9.068797827E-1;2.632104978E-2;9.772287369E0;9.814312210E0
8.020081880E-1;9.092726111E-1;2.871387079E-2;9.755537987E0;9.797863164E0
8.032041770E-1;9.044869542E-1;2.392822690E-2;9.741181374E0;9.783112172E0
8.044001670E-1;8.949156404E-1;3.349951655E-2;9.726823807E0;9.767962817E0
8.055962080E-1;8.997012973E-1;5.024927482E-2;9.707681656E0;9.749413857E0
8.067921980E-1;9.068797827E-1;5.503492057E-2;9.698110580E0;9.740575374E0
8.079881880E-1;9.116654396E-1;5.264209956E-2;9.686145782E0;9.729096833E0
8.091842290E-1;9.116654396E-1;5.742774159E-2;9.676574707E0;9.719595150E0
8.103802190E-1;9.188438654E-1;5.982056633E-2;9.678967476E0;9.722667533E0
8.115762080E-1;9.260223508E-1;5.742774159E-2;9.683753014E0;9.728097849E0
8.127722500E-1;9.308080077E-1;5.024927482E-2;9.693324089E0;9.738041920E0
8.139682400E-1;9.379864931E-1;5.264209956E-2;9.700503349E0;9.745889138E0
8.151642290E-1;9.427721500E-1;5.742774159E-2;9.700503349E0;9.746377917E0
8.163602710E-1;9.332008362E-1;6.460621208E-2;9.707681656E0;9.752646866E0
8.175562600E-1;9.332008362E-1;7.178468257E-2;9.714859962E0;9.759842260E0
8.187522500E-1;9.451649189E-1;6.939185411E-2;9.717252731E0;9.763357650E0
8.199482920E-1;9.475577474E-1;7.178468257E-2;9.726823807E0;9.773132563E0
8.211442810E-1;9.475577474E-1;7.896314561E-2;9.729216576E0;9.775569346E0
8.223402710E-1;9.499505758E-1;7.896314561E-2;9.729216576E0;9.775801576E0
8.235363130E-1;9.427721500E-1;9.092725813E-2;9.738788605E0;9.784737635E0
8.247323020E-1;9.427721500E-1;1.028913707E-1;9.748359680E0;9.794382186E0
8.259282920E-1;9.475577474E-1;1.028913707E-1;9.755537987E0;9.801988254E0
8.271243330E-1;9.523434043E-1;9.810572863E-2;9.753145218E0;9.800021650E0
8.283203230E-1;9.595218897E-1;8.853443712E-2;9.748359680E0;9.795868367E0
8.295163650E-1;9.643075466E-1;7.896314561E-2;9.745966911E0;9.793875395E0
8.307123540E-1;9.595218897E-1;5.742774159E-2;9.743574142E0;9.790874183E0
8.319083440E-1;9.571290612E-1;3.828516230E-2;9.734002113E0;9.781020342E0
8.331043850E-1;9.619147182E-1;1.674975827E-2;9.722038269E0;9.769523457E0
8.343003750E-1;9.571290612E-1;0.000000000E0;9.707681656E0;9.754751620E0
8.354963650E-1;9.523434043E-1;-9.571290575E-3;9.693324089E0;9.739999048E0
8.366924060E-1;9.475577474E-1;-2.632104978E-2;9.676574707E0;9.722893424E0
8.378883960E-1;9.427721500E-1;-3.828516230E-2;9.652647018E0;9.698653491E0
8.390843850E-1;9.475577474E-1;-5.024927482E-2;9.619147301E0;9.665835994E0
8.402803750E-1;9.547362328E-1;-5.264209956E-2;9.588040352E0;9.635601188E0
8.414764170E-1;9.619147182E-1;-6.221338734E-2;9.573683739E0;9.622087651E0
8.426724060E-1;9.547362328E-1;-8.853443712E-2;9.564111710E0;9.612054537E0
8.438683960E-1;9.451649189E-1;-1.124626622E-1;9.559326172E0;9.606596767E0
8.450644380E-1;9.308080077E-1;-1.220339537E-1;9.561718941E0;9.607693008E0
8.462604270E-1;9.068797827E-1;-1.292124242E-1;9.554540634E0;9.598352646E0
8.474564690E-1;8.877372146E-1;-1.339980662E-1;9.547362328E0;9.589481751E0
8.486524580E-1;8.709874153E-1;-1.339980662E-1;9.540184021E0;9.580797760E0
8.498484480E-1;8.518448472E-1;-1.387837082E-1;9.537791252E0;9.576761589E0
8.510444900E-1;8.350951076E-1;-1.459621787E-1;9.540184021E0;9.577776357E0
8.522404790E-1;8.255237937E-1;-1.483550072E-1;9.544969559E0;9.581750499E0
8.534364690E-1;8.207381964E-1;-1.411765367E-1;9.554540634E0;9.590765805E0
8.546325100E-1;8.135597110E-1;-1.268195957E-1;9.566504478E0;9.601873283E0
8.558285000E-1;8.183453679E-1;-1.172483116E-1;9.592825890E0;9.628382255E0
8.570244900E-1;8.183453679E-1;-1.196411327E-1;9.616754532E0;9.652252114E0
8.582204790E-1;8.159525394E-1;-1.172483116E-1;9.628718376E0;9.663940360E0
8.594165210E-1;8.231309652E-1;-1.004985496E-1;9.652647018E0;9.688201020E0
8.606125100E-1;8.303094506E-1;-8.614161611E-2;9.678967476E0;9.714898124E0
8.618085520E-1;8.255237937E-1;-7.417750359E-2;9.698110580E0;9.733464988E0
8.630045420E-1;8.279166222E-1;-6.699903309E-2;9.710074425E0;9.745536421E0
8.642005310E-1;8.327022791E-1;-6.221338734E-2;9.712467194E0;9.748296394E0
8.653965730E-1;8.350951076E-1;-5.264209956E-2;9.707681656E0;9.743676830E0
8.665925630E-1;8.398807645E-1;-4.546362907E-2;9.707681656E0;9.744052020E0
8.677885520E-1;8.470591903E-1;-3.828516230E-2;9.702896118E0;9.739875159E0
8.689845940E-1;8.542376757E-1;-4.067798331E-2;9.700503349E0;9.738128256E0
8.701805830E-1;8.542376757E-1;-3.589234129E-2;9.698110580E0;9.735725915E0
8.713765730E-1;8.542376757E-1;-2.392822690E-2;9.698110580E0;9.735689159E0
8.725726150E-1;8.590233326E-1;-2.871387079E-2;9.700503349E0;9.738506600E0
8.737686040E-1;8.638089895E-1;-3.349951655E-2;9.693324089E0;9.731794289E0
8.749645940E-1;8.662018180E-1;-1.914258115E-2;9.690931320E0;9.729584877E0
8.761606350E-1;8.685946465E-1;-4.785645287E-3;9.693324089E0;9.732163760E0
8.773566250E-1;8.733802438E-1;-1.196411345E-2;9.693324089E0;9.732598219E0
8.785526150E-1;8.829515576E-1;-2.871387079E-2;9.693324089E0;9.733496794E0
8.797486560E-1;8.853443861E-1;-3.349951655E-2;9.695717812E0;9.736113228E0
8.809446460E-1;8.901300430E-1;-2.153540403E-2;9.698110580E0;9.738898505E0
8.821406350E-1;8.997012973E-1;-2.392822644E-3;9.695717812E0;9.737371926E0
8.833366770E-1;9.020941257E-1;1.914258115E-2;9.695717812E0;9.737611829E0
8.845326670E-1;8.925228715E-1;2.153540403E-2;9.700503349E0;9.741500197E0
8.857286560E-1;8.901300430E-1;1.196411345E-2;9.695717812E0;9.736499295E0
8.869246980E-1;8.925228715E-1;2.392822644E-3;9.690931320E0;9.731944957E0
8.881206880E-1;8.877372146E-1;7.178467698E-3;9.700503349E0;9.741041737E0
8.893166770E-1;8.733802438E-1;2.632104978E-2;9.698110580E0;9.737393629E0
8.905127190E-1;8.685946465E-1;3.349951655E-2;9.681360245E0;9.720304268E0
8.917087080E-1;8.877372146E-1;3.110669367E-2;9.671789169E0;9.712494568E0
8.929046980E-1;9.020941257E-1;3.589234129E-2;9.659825325E0;9.701921840E0
8.941007400E-1;9.068797827E-1;4.785645381E-2;9.647860527E0;9.690507413E0
8.952967290E-1;9.260223508E-1;5.264209956E-2;9.645467758E0;9.689960622E0
8.964927190E-1;9.427721500E-1;4.307080805E-2;9.643074989E0;9.689147004E0
8.976887600E-1;9.475577474E-1;3.828516230E-2;9.640682220E0;9.687212453E0
8.988847500E-1;9.379864931E-1;3.349951655E-2;9.650253296E0;9.695789269E0
9.000807400E-1;9.332008362E-1;1.914258115E-2;9.647860527E0;9.692906839E0
9.012767810E-1;9.427721500E-1;7.178467698E-3;9.635896683E0;9.681909715E0
9.024727710E-1;9.499505758E-1;9.571290575E-3;9.635896683E0;9.682613417E0
9.036687600E-1;9.523434043E-1;2.153540403E-2;9.645467758E0;9.692392378E0
9.048648020E-1;9.499505758E-1;1.914258115E-2;9.655039787E0;9.701678506E0
9.060607920E-1;9.475577474E-1;2.392822690E-2;9.662218094E0;9.708599113E0
9.072567810E-1;9.451649189E-1;3.828516230E-2;9.664610863E0;9.710793253E0
9.084528230E-1;9.499505758E-1;5.024927482E-2;9.645467758E0;9.692263892E0
9.096488130E-1;9.475577474E-1;5.264209956E-2;9.619147301E0;9.665848730E0
9.108448020E-1;9.403793216E-1;5.742774159E-2;9.602396965E0;9.648504479E0
9.120408440E-1;9.260223508E-1;6.939185411E-2;9.583254814E0;9.628141329E0
9.132368330E-1;9.164510965E-1;6.460621208E-2;9.561718941E0;9.605754821E0
9.144328230E-1;9.188438654E-1;6.699903309E-2;9.556933403E0;9.601236326E0
9.156288650E-1;9.020941257E-1;8.135596663E-2;9.552147865E0;9.594994604E0
9.168248540E-1;8.901300430E-1;8.374879509E-2;9.540184021E0;9.581986042E0
9.180208440E-1;8.901300430E-1;7.896314561E-2;9.535398483E0;9.577180739E0
9.192168850E-1;8.877372146E-1;7.417750359E-2;9.537791252E0;9.579302774E0
9.204128750E-1;8.829515576E-1;7.417750359E-2;9.533005714E0;9.574095451E0
9.216088650E-1;8.805587292E-1;6.460621208E-2;9.530612946E0;9.571423131E0
9.228049060E-1;8.829515576E-1;5.264209956E-2;9.537791252E0;9.578717900E0
9.240008960E-1;8.925228715E-1;3.349951655E-2;9.554540634E0;9.596195393E0
9.251968850E-1;9.020941257E-1;2.392822644E-3;9.568898201E0;9.611326252E0
9.263929270E-1;8.997012973E-1;-1.914258115E-2;9.580862045E0;9.623032079E0
9.275889170E-1;8.853443861E-1;-3.110669367E-2;9.602396965E0;9.643175296E0
9.287849060E-1;8.542376757E-1;-4.067798331E-2;9.604789734E0;9.642788110E0
9.299809480E-1;8.159525394E-1;-4.546362907E-2;9.600004196E0;9.634725012E0
9.311769380E-1;7.896314859E-1;-5.264209956E-2;9.602396965E0;9.634952857E0
9.323729270E-1;7.752745152E-1;-6.460621208E-2;9.600004196E0;9.631474711E0
9.335689690E-1;7.537391186E-1;-7.896314561E-2;9.583254814E0;9.613174849E0
9.347649580E-1;7.322037220E-1;-8.614161611E-2;9.566504478E0;9.594871057E0
9.359609480E-1;7.178468108E-1;-8.135596663E-2;9.554540634E0;9.581814524E0
9.371569900E-1;7.154539824E-1;-7.657032460E-2;9.547362328E0;9.574438095E0
9.383529790E-1;7.106683254E-1;-6.939185411E-2;9.530612946E0;9.557324302E0
9.395489690E-1;7.130611539E-1;-6.221338734E-2;9.504291534E0;9.531205815E0
9.407450100E-1;7.106683254E-1;-5.742774159E-2;9.482755661E0;9.509521667E0
9.419410000E-1;7.106683254E-1;-5.024927482E-2;9.458827972E0;9.485620753E0
9.431369900E-1;7.082754970E-1;-4.546362907E-2;9.430113792E0;9.456784192E0
9.443330310E-1;7.082754970E-1;-3.589234129E-2;9.401400566E0;9.428110895E0
9.455290210E-1;6.987041831E-1;-2.392822690E-2;9.367900848E0;9.393951586E0
9.467250100E-1;6.699903607E-1;-1.674975827E-2;9.332008362E0;9.356043379E0
9.479210520E-1;6.317051649E-1;0.000000000E0;9.303294182E0;9.324716299E0
9.491170420E-1;5.910272002E-1;9.571290575E-3;9.279366493E0;9.298174406E0
9.503130310E-1;5.599204898E-1;1.435693540E-2;9.257830620E0;9.274758480E0
9.515090730E-1;5.288137794E-1;3.589234129E-2;9.231510162E0;9.246713587E0
9.527050630E-1;4.785645306E-1;6.221338734E-2;9.205188751E0;9.217830247E0
9.539010520E-1;4.235295951E-1;7.417750359E-2;9.169296265E0;9.179372179E0
9.550970940E-1;3.684946895E-1;8.135596663E-2;9.116654396E0;9.124461327E0
9.562930830E-1;3.038884699E-1;8.374879509E-2;9.059226990E0;9.064709356E0
9.574890730E-1;2.392822653E-1;9.332008660E-2;9.008976936E0;9.012637243E0
9.586851150E-1;1.818545163E-1;1.100698411E-1;8.953942299E0;8.956465214E0
9.598811040E-1;1.339980662E-1;1.148554832E-1;8.886942863E0;8.888695108E0
9.610770940E-1;9.571290761E-2;1.172483116E-1;8.810373306E0;8.811673276E0
9.622731350E-1;6.939185411E-2;1.292124242E-1;8.740981102E0;8.742211488E0
9.634691250E-1;4.785645381E-2;1.411765367E-1;8.693124771E0;8.694402759E0
9.646651150E-1;2.392822690E-2;1.531406492E-1;8.657232285E0;8.658619720E0
9.658611560E-1;0.000000000E0;1.674975902E-1;8.630910873E0;8.632536009E0
9.670571460E-1;-2.153540403E-2;1.866401732E-1;8.616554260E0;8.618602302E0
9.682531350E-1;-3.349951655E-2;2.033899277E-1;8.611768723E0;8.614235324E0
9.694491770E-1;-3.589234129E-2;2.249253243E-1;8.621339798E0;8.624348067E0
9.706451670E-1;-4.785645381E-2;2.488535494E-1;8.630910873E0;8.634630324E0
9.718411560E-1;-6.699903309E-2;2.751746178E-1;8.633303642E0;8.637947772E0
9.730371980E-1;-8.614161611E-2;3.014956415E-1;8.635697365E0;8.641388139E0
9.742331880E-1;-8.853443712E-2;3.326023519E-1;8.635697365E0;8.642553537E0
9.754291770E-1;-8.374879509E-2;3.780659735E-1;8.630910873E0;8.639593176E0
9.766252190E-1;-7.178468257E-2;4.235295951E-1;8.606983185E0;8.617696322E0
9.778212080E-1;-5.742774159E-2;4.618147612E-1;8.561519623E0;8.574158214E0
9.790171980E-1;-4.067798331E-2;5.048855543E-1;8.482556343E0;8.497665929E0
9.802132400E-1;-2.392822690E-2;5.479564071E-1;8.358129501E0;8.376106348E0
9.814092290E-1;1.196411345E-2;5.862415433E-1;8.173882484E0;8.194887257E0
9.826052710E-1;6.699903309E-2;6.149554253E-1;7.936992645E0;7.961062196E0
9.838012600E-1;1.555334777E-1;6.436693072E-1;7.692924976E0;7.721372646E0
9.849972500E-1;2.632105052E-1;6.723831892E-1;7.453642368E0;7.488535469E0
9.861932920E-1;3.613162339E-1;7.010970116E-1;7.245467186E0;7.288270109E0
9.873892810E-1;4.450650215E-1;7.226324677E-1;7.068397999E0;7.119166442E0
9.885852710E-1;5.144568682E-1;7.441678643E-1;6.912864685E0;6.971811087E0
9.897812600E-1;5.862415433E-1;7.489534616E-1;6.778866768E0;6.845264428E0
9.909773020E-1;6.436693072E-1;7.250252366E-1;6.647261143E0;6.717592759E0
9.921732920E-1;6.939185858E-1;6.723831892E-1;6.443871498E0;6.515911451E0
9.933692810E-1;7.250252366E-1;5.120640397E-1;5.929414749E0;5.995484171E0
9.945653230E-1;7.417750359E-1;3.158525825E-1;5.328815937E0;5.389459374E0
9.957613130E-1;7.561319470E-1;2.129612118E-1;5.041677475E0;5.102509163E0
9.969573540E-1;7.489534616E-1;1.842473447E-1;5.058426857E0;5.116889743E0
9.981533440E-1;7.274180651E-1;1.890329868E-1;5.237888813E0;5.291535668E0
9.993493330E-1;6.843472719E-1;1.674975902E-1;5.359922886E0;5.406029964E0
1.000545375E0;6.029912829E-1;5.264209956E-2;5.254638672E0;5.289385338E0
1.001741365E0;4.426721931E-1;-2.440679073E-1;4.539184570E0;4.567244725E0
1.002937354E0;2.153540403E-1;-5.647061467E-1;3.672982693E0;3.722374545E0
1.004133396E0;1.435693540E-2;-7.585247755E-1;3.177668571E0;3.266977733E0
1.005329385E0;-1.651047617E-1;-8.614161611E-1;2.737389088E0;2.874473239E0
1.006525375E0;-3.924229145E-1;-8.422735929E-1;2.359323025E0;2.535710095E0
1.007721417E0;-6.484549642E-1;-7.489534616E-1;2.038684845E0;2.266640912E0
1.008917406E0;-8.207381964E-1;-6.149554253E-1;1.696511269E0;1.982405571E0
1.010113396E0;-8.733802438E-1;-4.809573591E-1;1.050449133E0;1.448294311E0
1.011309385E0;-8.327022791E-1;-3.661018610E-1;6.771687865E-1;1.134011121E0
1.012505427E0;-7.417750359E-1;-2.656033039E-1;6.436693072E-1;1.017391516E0
1.013701417E0;-6.771687865E-1;-1.914258152E-1;5.144568682E-1;8.717036637E-1
1.014897458E0;-6.245267391E-1;-1.268195957E-1;5.264210105E-1;8.265808720E-1
1.016093448E0;-5.479564071E-1;-8.853443712E-2;5.216353536E-1;7.617073012E-1
1.017289438E0;-4.642075896E-1;-6.460621208E-2;5.096712112E-1;6.924069558E-1
1.018485479E0;-3.756731451E-1;-5.264209956E-2;4.689932466E-1;6.032049137E-1
1.019681469E0;-2.488535494E-1;-6.460621208E-2;3.565305769E-1;4.395635380E-1
1.020877458E0;-1.172483116E-1;-7.178468257E-2;1.818545163E-1;2.279720867E-1
1.022073500E0;-3.589234129E-2;-7.657032460E-2;6.699903309E-2;1.078895046E-1
1.023269490E0;2.392822644E-3;-7.657032460E-2;3.349951655E-2;8.361194782E-2
1.024465479E0;1.196411345E-2;-8.135596663E-2;1.196411345E-2;8.309677086E-2
1.025661521E0;1.914258115E-2;-7.178468257E-2;0.000000000E0;7.429319663E-2
1.026857510E0;1.435693540E-2;-5.982056633E-2;-1.435693540E-2;6.317233052E-2
1.028053500E0;7.178467698E-3;-5.742774159E-2;-1.914258115E-2;6.095829981E-2
1.029249542E0;4.785645287E-3;-5.742774159E-2;-1.435693540E-2;5.938829429E-2
1.030445531E0;1.196411345E-2;-5.742774159E-2;-1.674975827E-2;6.100524499E-2
1.031641521E0;1.435693540E-2;-6.221338734E-2;-1.914258115E-2;6.665632432E-2
1.032837563E0;7.178467698E-3;-7.417750359E-2;-9.571290575E-3;7.513615668E-2
1.034033552E0;1.435693540E-2;-8.374879509E-2;-4.785645287E-3;8.510513894E-2
1.035229542E0;3.110669367E-2;-7.896314561E-2;-7.178467698E-3;8.517238493E-2
1.036425583E0;3.828516230E-2;-7.657032460E-2;-9.571290575E-3;8.614161517E-2
1.037621573E0;4.067798331E-2;-6.699903309E-2;-1.435693540E-2;7.968494435E-2
1.038817563E0;4.785645381E-2;-5.742774159E-2;-1.674975827E-2;7.660770246E-2
1.040013604E0;4.307080805E-2;-5.503492057E-2;-1.196411345E-2;7.090188291E-2
1.041209594E0;2.632104978E-2;-5.503492057E-2;-7.178467698E-3;6.142613892E-2
1.042405583E0;2.153540403E-2;-6.460621208E-2;-4.785645287E-3;6.826887041E-2
1.043601625E0;1.914258115E-2;-7.417750359E-2;-7.178467698E-3;7.694329633E-2
1.044797615E0;1.914258115E-2;-8.135596663E-2;-1.196411345E-2;8.442968512E-2
1.045993604E0;3.110669367E-2;-9.332008660E-2;-2.392822644E-3;9.839710643E-2
1.047189646E0;3.110669367E-2;-9.332008660E-2;2.392822644E-3;9.839710643E-2
1.048385635E0;1.914258115E-2;-7.896314561E-2;2.392822644E-3;8.128556070E-2
1.049581625E0;1.435693540E-2;-6.939185411E-2;4.785645287E-3;7.102290765E-2
1.050777667E0;2.153540403E-2;-7.178468257E-2;-2.392822644E-3;7.498359740E-2
1.051973656E0;2.392822690E-2;-7.896314561E-2;-9.571290575E-3;8.306231403E-2
1.053169646E0;9.571290575E-3;-8.135596663E-2;-4.785645287E-3;8.205672008E-2
1.054365688E0;9.571290575E-3;-8.614161611E-2;0.000000000E0;8.667172335E-2
1.055561677E0;1.914258115E-2;-8.614161611E-2;0.000000000E0;8.824293988E-2
1.056757667E0;2.392822690E-2;-8.374879509E-2;7.178467698E-3;8.739537242E-2
1.057953708E0;2.392822690E-2;-8.135596663E-2;1.674975827E-2;8.644019754E-2
1.059149698E0;1.196411345E-2;-8.614161611E-2;1.674975827E-2;8.856676825E-2
1.060345688E0;2.392822644E-3;-8.135596663E-2;9.571290575E-3;8.195198905E-2
1.061541729E0;4.785645287E-3;-7.178468257E-2;2.392822644E-3;7.198380827E-2
1.062737719E0;2.392822690E-2;-8.135596663E-2;9.571290575E-3;8.534027743E-2
1.063933708E0;4.307080805E-2;-8.374879509E-2;1.196411345E-2;9.493205568E-2
1.065129750E0;4.307080805E-2;-7.896314561E-2;1.196411345E-2;9.073815560E-2
1.066325740E0;3.349951655E-2;-6.939185411E-2;1.674975827E-2;7.885430507E-2
1.067521729E0;2.632104978E-2;-5.982056633E-2;1.914258115E-2;6.810092679E-2
1.068717771E0;2.153540403E-2;-6.221338734E-2;2.392822690E-2;7.004883463E-2
1.069913760E0;1.914258115E-2;-6.939185411E-2;3.110669367E-2;7.841743569E-2
1.071109750E0;1.196411345E-2;-7.417750359E-2;3.589234129E-2;8.326885499E-2
1.072305792E0;4.785645287E-3;-7.657032460E-2;2.871387079E-2;8.191705186E-2
1.073501781E0;1.914258115E-2;-8.135596663E-2;2.871387079E-2;8.837260942E-2
1.074697771E0;3.349951655E-2;-8.614161611E-2;3.110669367E-2;9.752036723E-2
1.075893813E0;2.392822690E-2;-9.092725813E-2;3.349951655E-2;9.981254392E-2
1.077089802E0;1.196411345E-2;-9.092725813E-2;3.589234129E-2;9.848434619E-2
1.078285844E0;1.196411345E-2;-7.896314561E-2;3.349951655E-2;8.660563483E-2
1.079481833E0;1.196411345E-2;-7.417750359E-2;3.110669367E-2;8.132077496E-2
1.080677823E0;1.674975827E-2;-7.896314561E-2;3.349951655E-2;8.739536816E-2
1.081873813E0;2.871387079E-2;-7.896314561E-2;4.067798331E-2;9.335075290E-2
1.083069854E0;3.349951655E-2;-7.657032460E-2;5.024927482E-2;9.752036627E-2
1.084265844E0;1.674975827E-2;-7.178468257E-2;5.024927482E-2;8.921089997E-2
1.085461885E0;1.435693540E-2;-7.178468257E-2;4.785645381E-2;8.746086220E-2
1.086657875E0;3.110669367E-2;-8.135596663E-2;4.785645381E-2;9.938138592E-2
1.087853865E0;3.349951655E-2;-8.853443712E-2;4.067798331E-2;1.030303960E-1
1.089049906E0;2.153540403E-2;-8.614161611E-2;3.110669367E-2;9.408388833E-2
1.090245896E0;1.435693540E-2;-8.135596663E-2;3.110669367E-2;8.827537194E-2
1.091441885E0;1.674975827E-2;-9.092725813E-2;2.871387079E-2;9.681325865E-2
1.092637927E0;2.632104978E-2;-1.004985496E-1;3.110669367E-2;1.084452974E-1
1.093833917E0;3.349951655E-2;-8.374879509E-2;4.067798331E-2;9.894835327E-2
1.095029906E0;3.349951655E-2;-7.657032460E-2;4.546362907E-2;9.514291243E-2
1.096225896E0;3.589234129E-2;-7.896314561E-2;4.785645381E-2;9.906401314E-2
1.097421938E0;3.828516230E-2;-7.896314561E-2;5.264209956E-2;1.023333898E-1
1.098617927E0;3.110669367E-2;-7.657032460E-2;5.024927482E-2;9.672450889E-2
1.099813969E0;3.110669367E-2;-7.417750359E-2;5.264209956E-2;9.613073949E-2
1.101009958E0;3.110669367E-2;-7.896314561E-2;5.982056633E-2;1.038330627E-1
1.102205948E0;2.392822690E-2;-8.135596663E-2;6.460621208E-2;1.066082360E-1
1.103401990E0;9.571290575E-3;-8.374879509E-2;6.221338734E-2;1.047662916E-1
1.104597979E0;0.000000000E0;-8.614161611E-2;6.460621208E-2;1.076770201E-1
1.105793969E0;-2.392822644E-3;-8.374879509E-2;6.939185411E-2;1.087879391E-1
1.106990010E0;2.392822644E-3;-8.614161611E-2;6.939185411E-2;1.106405579E-1
1.108186000E0;1.435693540E-2;-8.135596663E-2;6.939185411E-2;1.078895005E-1
1.109381990E0;2.632104978E-2;-7.657032460E-2;6.699903309E-2;1.050936854E-1
1.110577979E0;3.349951655E-2;-7.896314561E-2;6.699903309E-2;1.088405550E-1
1.111774021E0;3.349951655E-2;-8.374879509E-2;7.417750359E-2;1.167834763E-1
1.112970010E0;3.828516230E-2;-9.332008660E-2;7.657032460E-2;1.266388835E-1
1.114166000E0;4.067798331E-2;-9.810572863E-2;7.896314561E-2;1.323427772E-1
1.115362042E0;3.589234129E-2;-9.332008660E-2;8.853443712E-2;1.335486626E-1
1.116558031E0;2.153540403E-2;-7.657032460E-2;9.332008660E-2;1.226190311E-1
1.117754073E0;1.435693540E-2;-5.982056633E-2;8.853443712E-2;1.078098711E-1
1.118950063E0;1.914258115E-2;-5.982056633E-2;8.614161611E-2;1.066082389E-1
1.120146052E0;1.914258115E-2;-5.503492057E-2;9.571290761E-2;1.120546366E-1
1.121342094E0;1.196411345E-2;-6.221338734E-2;9.332008660E-2;1.127931032E-1
1.122538083E0;2.392822644E-3;-7.896314561E-2;8.853443712E-2;1.186560176E-1
1.123734073E0;4.785645287E-3;-8.135596663E-2;9.332008660E-2;1.238964659E-1
1.124930115E0;1.196411345E-2;-7.896314561E-2;9.332008660E-2;1.228289743E-1
1.126126104E0;1.196411345E-2;-8.614161611E-2;9.571290761E-2;1.293231562E-1
1.127322094E0;4.785645287E-3;-9.571290761E-2;1.004985496E-1;1.388662002E-1
1.128518135E0;0.000000000E0;-9.092725813E-2;1.052841991E-1;1.391133669E-1
1.129714125E0;-2.392822644E-3;-7.178468257E-2;1.100698411E-1;1.314311081E-1
1.130910115E0;0.000000000E0;-6.460621208E-2;1.148554832E-1;1.317791511E-1
1.132106156E0;9.571290575E-3;-6.939185411E-2;1.196411327E-1;1.386392428E-1
1.133302146E0;1.674975827E-2;-7.178468257E-2;1.292124242E-1;1.487596908E-1
1.134498135E0;2.153540403E-2;-6.699903309E-2;1.244267747E-1;1.429498735E-1
1.135694177E0;2.392822690E-2;-6.699903309E-2;1.244267747E-1;1.433298738E-1
1.136890167E0;2.153540403E-2;-7.178468257E-2;1.363908947E-1;1.556254813E-1
1.138086156E0;1.914258115E-2;-7.178468257E-2;1.387837082E-1;1.574179047E-1
1.139282198E0;1.435693540E-2;-7.417750359E-2;1.435693651E-1;1.622362051E-1
1.140478188E0;2.392822690E-2;-8.374879509E-2;1.507478207E-1;1.741014824E-1
1.141674177E0;3.828516230E-2;-8.614161611E-2;1.555334777E-1;1.818702679E-1
1.142870219E0;3.828516230E-2;-8.374879509E-2;1.555334777E-1;1.807492102E-1
1.144066208E0;3.349951655E-2;-7.417750359E-2;1.603191197E-1;1.797963842E-1
1.145262198E0;3.110669367E-2;-7.657032460E-2;1.674975902E-1;1.867781671E-1
1.146458240E0;3.110669367E-2;-8.614161611E-2;1.818545163E-1;2.036150031E-1
1.147654229E0;2.392822690E-2;-8.374879509E-2;1.914258152E-1;2.103099224E-1
1.148850219E0;2.153540403E-2;-7.896314561E-2;1.938186288E-1;2.103915703E-1
1.150046260E0;3.349951655E-2;-8.853443712E-2;2.009970993E-1;2.221720011E-1
1.151242250E0;3.349951655E-2;-9.092725813E-2;2.225325108E-1;2.427152699E-1
1.152438240E0;2.392822690E-2;-8.853443712E-2;2.392822653E-1;2.562555543E-1
1.153634281E0;2.153540403E-2;-9.092725813E-2;2.488535494E-1;2.658187896E-1
1.154830271E0;3.589234129E-2;-8.135596663E-2;2.608176768E-1;2.755592749E-1
1.156026260E0;4.307080805E-2;-7.178468257E-2;2.823530734E-1;2.945019409E-1
1.157222302E0;3.828516230E-2;-7.178468257E-2;3.086741269E-1;3.192154616E-1
1.158418292E0;3.349951655E-2;-7.417750359E-2;3.421736360E-1;3.517205095E-1
1.159614333E0;3.828516230E-2;-7.417750359E-2;3.852444589E-1;3.941844097E-1
1.160810323E0;3.828516230E-2;-7.417750359E-2;4.474578202E-1;4.551775000E-1
1.162006313E0;2.871387079E-2;-7.896314561E-2;5.312066078E-1;5.378104917E-1
1.163202302E0;1.914258115E-2;-9.092725813E-2;6.484549642E-1;6.550786558E-1
1.164398344E0;1.435693540E-2;-1.028913707E-1;8.255237937E-1;8.320350291E-1
1.165594333E0;1.196411345E-2;-6.939185411E-2;1.026520967E0;1.028933266E0
1.166790323E0;-1.246660590E0;6.326622963E0;-7.166503906E0;9.640492673E0
1.167986365E0;1.689332843E0;2.215036011E1;3.998406649E0;2.257165377E1
1.169182354E0;-1.004985496E-1;3.912504196E1;1.626401520E1;4.237094758E1
1.170378396E0;-3.031706333E0;3.604787445E1;3.491128206E0;3.634320393E1
1.171574385E0;-3.134597778E0;1.366780281E1;1.772363663E1;2.260004054E1
1.172770375E0;9.190832138E0;-9.162117958E0;4.774638367E1;4.947861108E1
1.173966365E0;1.107637596E1;-2.269113731E1;3.737110519E1;4.510181061E1
1.175162406E0;-8.997012973E-1;-1.518724537E1;8.886942863E0;1.761929731E1
1.176358396E0;1.036092162E0;-6.192625046E0;1.452682590E1;1.582563625E1
1.177554385E0;-3.278166950E-1;-2.287538528E0;5.950950146E0;6.383894105E0
1.178750427E0;-2.249253243E-1;-5.144568682E-1;4.125226021E0;4.163261581E0
1.179946417E0;1.686939955E0;-2.249253273E0;2.334677124E1;2.351545522E1
1.181142406E0;4.840680122E0;-3.280559778E0;3.495674515E1;3.544246447E1
1.182338448E0;5.821737289E0;-6.027520180E0;3.536831284E1;3.634750579E1
1.183534438E0;3.160918713E0;-4.630111694E0;1.788395691E1;1.874207182E1
1.184730427E0;1.660618901E0;-2.773281336E0;1.041835022E1;1.090828886E1
1.185926417E0;6.484549642E-1;-1.450050473E0;4.421936035E0;4.698580479E0
1.187122458E0;3.134597540E-1;-6.795616150E-1;1.993221283E0;2.129082452E0
1.188318448E0;6.939185411E-2;-4.713860750E-1;1.234696507E0;1.323440791E0
1.189514438E0;1.435693540E-2;-1.339980662E-1;2.464607358E-1;2.808994440E-1
1.190710479E0;-2.632104978E-2;-1.770688742E-1;4.307080805E-1;4.664285953E-1
1.191906469E0;-3.589234129E-2;-3.110669367E-2;-8.135596663E-2;9.420551926E-2
1.193102458E0;-3.828516230E-2;-8.853443712E-2;1.698904037E-1;1.953633781E-1
1.194298500E0;-4.307080805E-2;-4.067798331E-2;4.067798331E-2;7.186439424E-2
1.195494490E0;-5.503492057E-2;-6.221338734E-2;8.374879509E-2;1.179542654E-1
1.196690479E0;-5.742774159E-2;-5.024927482E-2;-3.589234129E-2;8.432790337E-2
1.197886521E0;-4.067798331E-2;-4.067798331E-2;-1.196411327E-1;1.327531441E-1
1.199082510E0;-3.828516230E-2;-4.307080805E-2;-1.770688742E-1;1.862101887E-1
1.200278500E0;-3.589234129E-2;-3.349951655E-2;-2.440679073E-1;2.489570669E-1
1.201474542E0;-3.110669367E-2;-4.307080805E-2;-2.081755698E-1;2.148482924E-1
1.202670531E0;-1.914258115E-2;-3.589234129E-2;-1.722832322E-1;1.770203680E-1
1.203866521E0;-7.178467698E-3;-4.546362907E-2;-1.076770201E-1;1.171017192E-1
1.205062563E0;-0.000000000E0;-5.503492057E-2;-1.627119333E-1;1.717673301E-1
1.206258552E0;-2.392822644E-3;-6.460621208E-2;-1.459621787E-1;1.596391113E-1
1.207454542E0;2.392822644E-3;-6.221338734E-2;-8.853443712E-2;1.082339028E-1
1.208650948E0;9.571290575E-3;-7.417750359E-2;-1.674975827E-2;7.664506536E-2
1.209846573E0;1.435693540E-2;-7.657032460E-2;9.571290575E-3;7.849041857E-2
1.211042563E0;2.632104978E-2;-7.896314561E-2;-3.589234129E-2;9.064345641E-2
1.212238604E0;1.914258115E-2;-7.896314561E-2;-4.785645381E-2;9.429664336E-2
1.213434594E0;1.196411345E-2;-8.135596663E-2;-4.067798331E-2;9.174220208E-2
1.214630583E0;2.392822690E-2;-9.332008660E-2;-2.632104978E-2;9.986989670E-2
1.215826625E0;2.392822690E-2;-9.332008660E-2;-3.110669367E-2;1.012364806E-1
1.217022615E0;1.914258115E-2;-8.135596663E-2;-3.349951655E-2;9.004137564E-2
1.218218604E0;7.178467698E-3;-7.896314561E-2;-5.024927482E-2;9.387064708E-2
1.219414646E0;-2.392822644E-3;-8.135596663E-2;-4.307080805E-2;9.208481641E-2
1.220610635E0;-7.178467698E-3;-7.657032460E-2;-1.196411345E-2;7.783113142E-2
1.221806625E0;-2.392822644E-3;-6.221338734E-2;4.785645287E-3;6.244304257E-2
1.223002667E0;9.571290575E-3;-6.460621208E-2;2.153540403E-2;6.877023971E-2
1.224198656E0;1.196411345E-2;-7.417750359E-2;3.589234129E-2;8.326885499E-2
1.225394646E0;1.435693540E-2;-7.896314561E-2;2.871387079E-2;8.523958197E-2
1.226590688E0;1.914258115E-2;-7.896314561E-2;4.067798331E-2;9.086426748E-2
1.227786677E0;1.674975827E-2;-7.896314561E-2;5.982056633E-2;1.004700598E-1
1.228982667E0;9.571290575E-3;-1.722832322E-1;2.344966233E-1;2.911387780E-1
1.230178708E0;-3.828516230E-2;-4.857429862E-1;1.253839016E0;1.345185593E0
1.231374698E0;7.178467698E-3;-9.858429432E-1;5.716453075E0;5.800842491E0
1.232570688E0;1.435693540E-2;-1.074377418E0;1.361037540E1;1.365272177E1
1.233766729E0;-2.895315289E-1;-3.349951655E-2;2.009731674E1;2.009943012E1
1.234962719E0;-6.053841114E-1;1.148554921E0;2.067638016E1;2.071710319E1
1.236158708E0;-6.915257573E-1;1.318445325E0;1.560120392E1;1.567207930E1
1.237354750E0;-6.269195080E-1;9.116654396E-1;9.336793900E0;9.402121158E0
1.238550740E0;-5.192425251E-1;5.144568682E-1;4.828716278E0;4.883725992E0
1.239746729E0;-4.235295951E-1;2.895315289E-1;2.402393818E0;2.456563022E0
1.240942771E0;-3.613162339E-1;1.794617027E-1;1.265803218E0;1.328538185E0
1.242138760E0;-3.254238665E-1;1.292124242E-1;6.987041831E-1;7.815267615E-1
1.243334750E0;-3.086741269E-1;1.100698411E-1;4.354937077E-1;5.450228031E-1
1.244530792E0;-3.086741269E-1;1.076770201E-1;3.014956415E-1;4.447175273E-1
1.245726781E0;-3.014956415E-1;1.124626622E-1;2.368894368E-1;3.995798762E-1
1.246922771E0;-2.919243574E-1;1.100698411E-1;2.105683982E-1;3.763964010E-1
1.248118813E0;-2.919243574E-1;1.004985496E-1;2.273181528E-1;3.833970938E-1
1.249314802E0;-3.014956415E-1;9.092725813E-2;2.584248483E-1;4.073705811E-1
1.250510792E0;-2.991028428E-1;8.135596663E-2;2.967100143E-1;4.290898933E-1
1.251706833E0;-3.014956415E-1;8.614161611E-2;3.517449200E-1;4.712159681E-1
1.252902823E0;-3.158525825E-1;9.810572863E-2;4.163511395E-1;5.317291220E-1
1.254098813E0;-3.326023519E-1;9.810572863E-2;4.881358147E-1;5.987700995E-1
1.255294854E0;-3.517449200E-1;9.092725813E-2;6.173482537E-1;7.163177517E-1
1.256490844E0;-3.804588020E-1;8.614161611E-2;8.255237937E-1;9.130491838E-1
1.257686833E0;-4.235295951E-1;8.135596663E-2;1.186840057E0;1.262768955E0
1.258882875E0;-4.953143001E-1;8.853443712E-2;1.942971945E0;2.007066163E0
1.260078865E0;-6.580262184E-1;1.698904037E-1;3.507878065E0;3.573103661E0
1.261274854E0;-9.619147182E-1;3.708875179E-1;6.561119556E0;6.641620835E0
1.262470896E0;-1.538584948E0;6.723831892E-1;1.180618668E1;1.192499001E1
1.263666885E0;-2.725425005E0;1.129412293E0;1.969293022E1;1.991268476E1
1.264862927E0;-5.125426292E0;1.988435626E0;3.013281631E1;3.063022184E1
1.266058917E0;-9.626325607E0;3.622733593E0;4.403990173E1;4.522502944E1
1.267254906E0;-1.462493229E1;5.082355499E0;5.865287018E1;6.066199932E1
1.268450896E0;-1.314138222E1;2.778067112E0;6.744649506E1;6.877094793E1
1.269646938E0;-6.297909260E0;-1.251446247E0;5.898068619E1;5.932917598E1
1.270842927E0;-1.399801254E0;-2.555534601E0;3.997688675E1;4.008293496E1
1.272038917E0;5.335994363E-1;-2.172683001E0;2.483271408E1;2.493329036E1
1.273234958E0;9.068797827E-1;-1.488335729E0;1.416072464E1;1.426757500E1
1.274430948E0;9.092726111E-1;-9.858429432E-1;8.133204460E0;8.243038140E0
1.275626990E0;7.776673436E-1;-6.460621357E-1;4.572684288E0;4.683119087E0
1.276822979E0;6.604190469E-1;-4.402793646E-1;2.667997360E0;2.783560517E0
1.278018969E0;5.431707501E-1;-3.086741269E-1;1.639083505E0;1.754112002E0
1.279214958E0;4.474578202E-1;-2.057827413E-1;1.119840980E0;1.223359660E0
1.280411000E0;3.637090325E-1;-1.698904037E-1;9.068797827E-1;9.917549848E-1
1.281606990E0;2.991028428E-1;-1.531406492E-1;8.063812256E-1;8.735932978E-1
1.282803031E0;2.560320199E-1;-1.483550072E-1;8.183453679E-1;8.702015540E-1
1.283999021E0;2.344966233E-1;-1.411765367E-1;8.685946465E-1;9.107009063E-1
1.285195010E0;2.297109663E-1;-1.459621787E-1;1.012163997E0;1.048116426E0
1.286391052E0;2.368894368E-1;-1.435693651E-1;1.234696507E0;1.265386990E0
1.287587042E0;2.679961324E-1;-1.603191197E-1;1.586441398E0;1.616886037E0
1.288783031E0;3.158525825E-1;-2.009970993E-1;2.076970100E0;2.110442486E0
1.289979073E0;3.804588020E-1;-2.225325108E-1;2.778067112E0;2.812814693E0
1.291175063E0;4.713860750E-1;-2.249253243E-1;3.802195072E0;3.837900937E0
1.292371052E0;5.886343718E-1;-2.273181528E-1;5.379065514E0;5.415949572E0
1.293567094E0;7.369893789E-1;-2.153540403E-1;7.764709473E0;7.802579311E0
1.294763083E0;8.733802438E-1;-1.651047617E-1;1.105484104E1;1.109051681E1
1.295959073E0;8.350951076E-1;-4.307080805E-2;1.505324745E1;1.507645508E1
1.297155115E0;3.876372576E-1;1.483550072E-1;1.894158363E1;1.894613054E1
1.298351104E0;-5.647061467E-1;4.019941986E-1;2.145404816E1;2.146524341E1
1.299547094E0;-1.696511269E0;6.723831892E-1;2.185843468E1;2.193448008E1
1.300743135E0;-2.498106956E0;9.068797827E-1;2.058784676E1;2.075867056E1
1.301939125E0;-2.801995277E0;1.062413216E0;1.853958893E1;1.878020918E1
1.303135115E0;-2.696711063E0;1.117448211E0;1.634537125E1;1.660397851E1
1.304331156E0;-2.275574446E0;1.036092162E0;1.434497166E1;1.456124781E1
1.305527146E0;-1.600798368E0;7.920243144E-1;1.270588779E1;1.283080054E1
1.306723135E0;-8.015955687E-1;4.402793646E-1;1.145204926E1;1.148850876E1
1.307919177E0;-3.828516230E-2;8.374879509E-2;1.048534870E1;1.048575305E1
1.309115167E0;6.029912829E-1;-1.986042857E-1;9.700503349E0;9.721255443E0
1.310311156E0;1.079162955E0;-4.067798555E-1;8.992227554E0;9.065882137E0
1.311507198E0;1.399801254E0;-5.551348329E-1;8.279166222E0;8.414999201E0
1.312703188E0;1.576870084E0;-6.340979934E-1;7.554141045E0;7.742974005E0
1.313899177E0;1.619940877E0;-6.388836503E-1;6.814758778E0;7.033727174E0
1.315095219E0;1.545763373E0;-5.647061467E-1;6.068198204E0;6.287392693E0
1.316291208E0;1.406979680E0;-4.187439680E-1;5.369493961E0;5.566543248E0
1.317487250E0;1.244267821E0;-2.201396823E-1;4.790431023E0;4.954280298E0
1.318683240E0;1.081555843E0;4.785645287E-3;4.383651257E0;4.515106232E0
1.319879229E0;9.212366939E-1;2.249253243E-1;4.163511276E0;4.270139880E0
1.321075271E0;7.704889178E-1;4.043870270E-1;4.137190342E0;4.227709305E0
1.322271260E0;6.628118753E-1;5.168496966E-1;4.307080746E0;4.388325164E0
1.323467250E0;6.029912829E-1;5.527420044E-1;4.663611412E0;4.734806608E0
1.324663292E0;5.814558864E-1;5.359922647E-1;5.197210789E0;5.257031352E0
1.325859281E0;5.958128572E-1;5.072783828E-1;5.893522263E0;5.945244232E0
1.327055271E0;6.221339107E-1;4.642075896E-1;6.728617191E0;6.773243580E0
1.328251313E0;6.101697683E-1;4.235295951E-1;7.647460938E0;7.683446053E0
1.329447302E0;5.455635786E-1;3.972085714E-1;8.585447311E0;8.611928925E0
1.330643292E0;4.139583111E-1;3.828516304E-1;9.504291534E0;9.521002806E0
1.331839333E0;2.153540403E-1;3.565305769E-1;1.039681435E1;1.040515449E1
1.333035323E0;-1.674975827E-2;3.110669553E-1;1.125344467E1;1.125775556E1
1.334231313E0;-2.536391914E-1;2.584248483E-1;1.206221867E1;1.206765244E1
1.335427354E0;-4.666004181E-1;2.297109663E-1;1.279442310E1;1.280498909E1
1.336623344E0;-6.460621357E-1;2.297109663E-1;1.339502144E1;1.341255989E1
1.337819333E0;-7.657032609E-1;2.153540403E-1;1.384247875E1;1.386531272E1
1.339015375E0;-8.063812256E-1;1.746760458E-1;1.413440323E1;1.415846450E1
1.340211365E0;-7.800601721E-1;1.244267747E-1;1.424686623E1;1.426874813E1
1.341407354E0;-7.034898400E-1;5.982056633E-2;1.416551018E1;1.418309399E1
1.342603396E0;-6.101697683E-1;-2.153540403E-2;1.389033508E1;1.390374696E1
1.343799385E0;-5.168496966E-1;-1.124626622E-1;1.345962715E1;1.347001650E1
1.344995375E0;-4.067798555E-1;-2.081755698E-1;1.292842102E1;1.293649400E1
1.346191417E0;-3.062812984E-1;-2.919243574E-1;1.236610699E1;1.237334353E1
1.347387406E0;-2.273181528E-1;-3.469592929E-1;1.182293701E1;1.183021107E1
1.348583396E0;-1.579262912E-1;-3.661018610E-1;1.132283688E1;1.132985464E1
1.349779438E0;-8.614161611E-2;-3.349951804E-1;1.089930725E1;1.090479439E1
1.350975427E0;-4.785645287E-3;-2.703889608E-1;1.056431198E1;1.056777274E1
1.352171417E0;7.896314561E-2;-2.033899277E-1;1.028195858E1;1.028427318E1
1.353367458E0;1.316052526E-1;-1.698904037E-1;1.003310490E1;1.003540615E1
1.354563448E0;1.603191197E-1;-1.603191197E-1;9.801001549E0;9.803623606E0
1.355759490E0;2.105683982E-1;-1.698904037E-1;9.592825890E0;9.596640576E0
1.356955479E0;2.991028428E-1;-1.986042857E-1;9.401400566E0;9.408253758E0
1.358151469E0;3.924229145E-1;-2.057827413E-1;9.214759827E0;9.225407359E0
1.359347510E0;4.737788737E-1;-1.914258152E-1;9.018548965E0;9.033013656E0
1.360543500E0;5.264210105E-1;-1.674975902E-1;8.817551613E0;8.834839612E0
1.361739490E0;5.503492355E-1;-1.363908947E-1;8.616554260E0;8.635189290E0
1.362935479E0;5.359922647E-1;-1.172483116E-1;8.425128937E0;8.442975333E0
1.364131521E0;4.857429862E-1;-1.148554832E-1;8.252845764E0;8.267926054E0
1.365327510E0;4.163511395E-1;-1.316052526E-1;8.121239662E0;8.132970052E0
1.366523552E0;3.373879790E-1;-1.555334777E-1;8.066205025E0;8.074756022E0
1.367719542E0;2.679961324E-1;-1.722832322E-1;8.104490280E0;8.110750036E0
1.368915531E0;2.321037948E-1;-1.674975902E-1;8.233702660E0;8.238676295E0
1.370112354E0;2.177468538E-1;-1.483550072E-1;8.451449394E0;8.455555556E0
1.371307563E0;2.009970993E-1;-1.411765367E-1;8.750552177E0;8.753998747E0
1.372503552E0;1.579262912E-1;-1.531406492E-1;9.092725754E0;9.095386435E0
1.373699594E0;9.332008660E-2;-1.459621787E-1;9.470791817E0;9.472376219E0
1.374895583E0;2.632104978E-2;-1.292124242E-1;9.860821724E0;9.861703388E0
1.376091573E0;-2.871387079E-2;-1.124626622E-1;1.022213840E1;1.022279736E1
1.377287615E0;-6.460621208E-2;-9.092725813E-2;1.052841949E1;1.052901034E1
1.378483604E0;-9.092725813E-2;-6.460621208E-2;1.076291656E1;1.076349454E1
1.379679594E0;-1.196411327E-1;-9.571290575E-3;1.089930725E1;1.089996808E1
1.380875635E0;-1.435693651E-1;5.024927482E-2;1.093280697E1;1.093386507E1
1.382071625E0;-1.507478207E-1;7.417750359E-2;1.085623646E1;1.085753643E1
1.383267615E0;-1.603191197E-1;8.135596663E-2;1.068395329E1;1.068546577E1
1.384463656E0;-1.722832322E-1;1.004985496E-1;1.044706345E1;1.044896723E1
1.385659646E0;-1.698904037E-1;1.387837082E-1;1.016471100E1;1.016707792E1
1.386855635E0;-1.579262912E-1;1.674975902E-1;9.877572060E0;9.880254346E0
1.388051677E0;-1.483550072E-1;1.746760458E-1;9.616754532E0;9.619484844E0
1.389247667E0;-1.244267747E-1;1.842473447E-1;9.396614075E0;9.399243862E0
1.390443656E0;-9.332008660E-2;1.962114573E-1;9.224330902E0;9.226889409E0
1.391639698E0;-6.221338734E-2;2.249253243E-1;9.097511292E0;9.100504030E0
1.392835688E0;-1.914258115E-2;2.560320199E-1;9.016156197E0;9.019811051E0
1.394031677E0;3.828516230E-2;2.727817893E-1;8.963513374E0;8.967744849E0
1.395227719E0;1.004985496E-1;2.871387303E-1;8.937192917E0;8.942369140E0
1.396423708E0;1.603191197E-1;2.919243574E-1;8.934800148E0;8.941005298E0
1.397619698E0;2.009970993E-1;2.799602449E-1;8.944371223E0;8.951008555E0
1.398815740E0;2.225325108E-1;2.727817893E-1;8.958727837E0;8.965641922E0
1.400011729E0;2.464607358E-1;2.703889608E-1;8.997013092E0;9.004448771E0
1.401207719E0;2.656033039E-1;2.679961324E-1;9.064012527E0;9.071862551E0
1.402403760E0;2.727817893E-1;2.584248483E-1;9.159725189E0;9.167429239E0
1.403599750E0;2.727817893E-1;2.368894368E-1;9.296115875E0;9.303133713E0
1.404795792E0;2.703889608E-1;2.177468538E-1;9.463613510E0;9.469979121E0
1.405991781E0;2.488535494E-1;1.962114573E-1;9.650253296E0;9.655455230E0
1.407187771E0;2.129612118E-1;1.818545163E-1;9.836894035E0;9.840879422E0
1.408383813E0;1.866401732E-1;1.842473447E-1;1.001396275E1;1.001739644E1
1.409579802E0;1.818545163E-1;1.890329868E-1;1.018385315E1;1.018723071E1
1.410775792E0;1.770688742E-1;1.698904037E-1;1.032263660E1;1.032555290E1
1.411971833E0;1.531406492E-1;1.531406492E-1;1.043509960E1;1.043734678E1
1.413167823E0;1.220339537E-1;1.387837082E-1;1.052363396E1;1.052525652E1
1.414363813E0;1.052841991E-1;1.172483116E-1;1.058824062E1;1.058941318E1
1.415559854E0;8.374879509E-2;1.052841991E-1;1.063370419E1;1.063455515E1
1.416755844E0;6.221338734E-2;1.004985496E-1;1.066720295E1;1.066785776E1
1.417951833E0;5.982056633E-2;8.853443712E-2;1.066720295E1;1.066773807E1
1.419147875E0;6.699903309E-2;6.460621208E-2;1.062173939E1;1.062214717E1
1.420343865E0;6.699903309E-2;2.871387079E-2;1.054038334E1;1.054063538E1
1.421539854E0;5.503492057E-2;-1.435693540E-2;1.043031406E1;1.043046914E1
1.422735896E0;4.546362907E-2;-4.067798331E-2;1.031785107E1;1.031803141E1
1.423931885E0;7.657032460E-2;-3.828516230E-2;1.022213840E1;1.022249687E1
1.425127875E0;1.363908947E-1;-4.785645381E-2;1.015035343E1;1.015138254E1
1.426323917E0;1.866401732E-1;-6.939185411E-2;1.010488987E1;1.010685159E1
1.427519906E0;2.249253243E-1;-7.896314561E-2;1.007139015E1;1.007421095E1
1.428715896E0;2.344966233E-1;-8.614161611E-2;1.003789139E1;1.004099958E1
1.429911938E0;2.273181528E-1;-1.004985496E-1;1.000439167E1;1.000747851E1
1.431107927E0;2.225325108E-1;-1.028913707E-1;9.966106415E0;9.969121547E0
1.432303969E0;2.368894368E-1;-1.124626622E-1;9.918250084E0;9.921716040E0
1.433499958E0;2.536391914E-1;-1.411765367E-1;9.865608215E0;9.869877867E0
1.434695948E0;2.440679073E-1;-1.674975902E-1;9.808179855E0;9.812645752E0
1.435891938E0;2.153540403E-1;-1.914258152E-1;9.743574142E0;9.747833517E0
1.437087979E0;1.866401732E-1;-2.129612118E-1;9.690931320E0;9.695067658E0
1.438283969E0;1.722832322E-1;-2.225325108E-1;9.664610863E0;9.668707533E0
1.439480010E0;1.722832322E-1;-2.273181528E-1;9.678967476E0;9.683169236E0
1.440676000E0;1.579262912E-1;-2.177468538E-1;9.741181374E0;9.744894507E0
1.441871990E0;1.339980662E-1;-2.081755698E-1;9.832108498E0;9.835224962E0
1.443067979E0;1.172483116E-1;-1.938186288E-1;9.920642853E0;9.923228680E0
1.444264021E0;9.092725813E-2;-1.746760458E-1;9.994820595E0;9.996760386E0
1.445460010E0;5.982056633E-2;-1.555334777E-1;1.004028416E1;1.004166695E1
1.446656052E0;3.349951655E-2;-1.196411327E-1;1.005224800E1;1.005301577E1
1.447852042E0;1.914258115E-2;-8.614161611E-2;1.003071213E1;1.003110027E1
1.449048031E0;0.000000000E0;-6.939185411E-2;9.968499184E0;9.968740703E0
1.450244073E0;-1.435693540E-2;-5.503492057E-2;9.860821724E0;9.860985754E0
1.451440063E0;-4.067798331E-2;-3.828516230E-2;9.734002113E0;9.734162398E0
1.452636052E0;-6.460621208E-2;-3.589234129E-2;9.621540070E0;9.621823919E0
1.453832094E0;-6.939185411E-2;-4.546362907E-2;9.535398483E0;9.535759351E0
1.455028083E0;-5.503492057E-2;-4.307080805E-2;9.477970123E0;9.478227767E0
1.456224073E0;-3.828516230E-2;-1.914258115E-2;9.451649666E0;9.451746590E0
1.457420115E0;-3.349951655E-2;2.392822644E-3;9.451649666E0;9.451709335E0
1.458616104E0;-2.871387079E-2;3.110669367E-2;9.463613510E0;9.463708194E0
1.459812094E0;-1.435693540E-2;6.221338734E-2;9.489934921E0;9.490149706E0
1.461008135E0;0.000000000E0;8.853443712E-2;9.516255379E0;9.516667210E0
1.462204125E0;7.178467698E-3;1.148554832E-1;9.521040916E0;9.521736367E0
1.463400115E0;1.914258115E-2;1.387837082E-1;9.504291534E0;9.505324031E0
1.464596156E0;3.110669367E-2;1.555334777E-1;9.487542152E0;9.488867919E0
1.465792146E0;4.067798331E-2;1.794617027E-1;9.475577354E0;9.477363948E0
1.466988135E0;5.742774159E-2;1.986042857E-1;9.463613510E0;9.465871448E0
1.468184177E0;7.896314561E-2;2.033899277E-1;9.458827972E0;9.461343945E0
1.469380167E0;9.810572863E-2;2.129612118E-1;9.463613510E0;9.466517727E0
1.470576156E0;1.028913707E-1;2.249253243E-1;9.485149384E0;9.488373773E0
1.471772198E0;9.092725813E-2;2.297109663E-1;9.533005714E0;9.536206418E0
1.472968188E0;8.853443712E-2;2.297109663E-1;9.600004196E0;9.603160211E0
1.474164229E0;9.810572863E-2;2.249253243E-1;9.669396400E0;9.672509648E0
1.475360219E0;1.052841991E-1;2.201396823E-1;9.736394882E0;9.739452323E0
1.476556208E0;1.052841991E-1;2.225325108E-1;9.789037704E0;9.792132794E0
1.477752198E0;1.076770201E-1;2.344966233E-1;9.824930191E0;9.828318079E0
1.478948240E0;1.124626622E-1;2.416750938E-1;9.839286804E0;9.842896907E0
1.480144229E0;1.148554832E-1;2.368894368E-1;9.846465111E0;9.849983937E0
1.481340219E0;1.196411327E-1;2.392822653E-1;9.865608215E0;9.869234796E0
1.482536260E0;1.316052526E-1;2.488535494E-1;9.889535904E0;9.893541753E0
1.483732250E0;1.435693651E-1;2.416750938E-1;9.901499748E0;9.905489199E0
1.484928292E0;1.459621787E-1;2.368894368E-1;9.911071777E0;9.914976820E0
1.486124281E0;1.363908947E-1;2.416750938E-1;9.930213928E0;9.934090698E0
1.487320271E0;1.220339537E-1;2.512463629E-1;9.942177773E0;9.946100536E0
1.488516313E0;1.124626622E-1;2.512463629E-1;9.946963310E0;9.950771411E0
1.489712302E0;1.172483116E-1;2.297109663E-1;9.951749802E0;9.955091080E0
1.490908292E0;1.387837082E-1;2.009970993E-1;9.949356079E0;9.952353849E0
1.492104333E0;1.459621787E-1;1.722832322E-1;9.942177773E0;9.944741592E0
1.493300323E0;1.172483116E-1;1.435693651E-1;9.927821159E0;9.929551465E0
1.494496313E0;7.657032460E-2;1.172483116E-1;9.918250084E0;9.919238625E0
1.495692354E0;5.982056633E-2;8.853443712E-2;9.937392235E0;9.937966657E0
1.496888344E0;7.896314561E-2;6.939185411E-2;9.987641335E0;9.988194523E0
1.498084333E0;1.004985496E-1;5.024927482E-2;1.004028416E1;1.004091285E1
1.499280375E0;1.100698411E-1;4.307080805E-2;1.010249710E1;1.010318851E1
1.500476365E0;1.100698411E-1;3.828516230E-2;1.015992451E1;1.016059285E1
1.501672354E0;8.374879509E-2;1.674975827E-2;1.020778179E1;1.020813908E1
1.502868396E0;5.024927482E-2;7.178467698E-3;1.023888779E1;1.023901361E1
1.504064385E0;4.307080805E-2;-2.392822644E-3;1.025563812E1;1.025572884E1
1.505260375E0;4.546362907E-2;-2.153540403E-2;1.025803089E1;1.025815424E1
1.506456417E0;5.024927482E-2;-4.546362907E-2;1.024367332E1;1.024389746E1
1.507652406E0;4.785645381E-2;-5.982056633E-2;1.021017456E1;1.021046195E1
1.508848396E0;2.871387079E-2;-7.178468257E-2;1.016471100E1;1.016500503E1
1.510044438E0;7.178467698E-3;-8.614161611E-2;1.012164021E1;1.012200930E1
1.511240427E0;0.000000000E0;-9.571290761E-2;1.007139015E1;1.007184494E1
1.512436469E0;7.178467698E-3;-1.028913707E-1;1.001156998E1;1.001210126E1
1.513632458E0;2.392822690E-2;-1.100698411E-1;9.956535339E0;9.957172485E0
1.514828448E0;3.828516230E-2;-1.076770201E-1;9.901499748E0;9.902159227E0
1.516024490E0;2.871387079E-2;-1.028913707E-1;9.851250648E0;9.851829803E0
1.517220479E0;1.914258115E-2;-1.004985496E-1;9.808179855E0;9.808713395E0
1.518416469E0;2.392822690E-2;-9.332008660E-2;9.777072906E0;9.777547536E0
1.519612510E0;3.589234129E-2;-9.092725813E-2;9.757930756E0;9.758420398E0
1.520808500E0;3.828516230E-2;-1.028913707E-1;9.750752449E0;9.751370453E0
1.522004490E0;3.828516230E-2;-1.028913707E-1;9.760323524E0;9.760940922E0
1.523200531E0;2.871387079E-2;-9.332008660E-2;9.769894600E0;9.770382470E0
1.524396521E0;2.871387079E-2;-8.614161611E-2;9.765109062E0;9.765531212E0
1.525592510E0;3.828516230E-2;-7.178468257E-2;9.762716293E0;9.763055271E0
1.526788552E0;4.307080805E-2;-5.742774159E-2;9.755537987E0;9.755802092E0
1.527984542E0;3.828516230E-2;-4.067798331E-2;9.726823807E0;9.726984210E0
1.529180531E0;3.349951655E-2;-3.589234129E-2;9.683753014E0;9.683877473E0
1.530376573E0;2.632104978E-2;-3.110669367E-2;9.635896683E0;9.635982841E0
1.531572563E0;4.785645287E-3;-1.435693540E-2;9.588040352E0;9.588052295E0
1.532768552E0;-7.178467698E-3;2.392822644E-3;9.544969559E0;9.544972558E0
1.533964594E0;7.178467698E-3;1.674975827E-2;9.509077072E0;9.509094534E0
1.535160583E0;3.110669367E-2;2.153540403E-2;9.489934921E0;9.490010338E0
1.536356573E0;3.828516230E-2;3.349951655E-2;9.489934921E0;9.490071274E0
1.537552615E0;3.349951655E-2;5.503492057E-2;9.516255379E0;9.516473480E0
1.538748604E0;5.264209956E-2;6.939185411E-2;9.561718941E0;9.562115640E0
1.539944594E0;7.657032460E-2;8.135596663E-2;9.611968994E0;9.612618257E0
1.541140635E0;8.374879509E-2;1.004985496E-1;9.659825325E0;9.660711109E0
1.542336625E0;8.614161611E-2;1.244267747E-1;9.695717812E0;9.696898797E0
1.543532615E0;8.374879509E-2;1.411765367E-1;9.707681656E0;9.709069358E0
1.544728656E0;7.896314561E-2;1.603191197E-1;9.705288887E0;9.706934108E0
1.545924646E0;8.374879509E-2;1.722832322E-1;9.700503349E0;9.702394581E0
1.547120688E0;7.896314561E-2;1.746760458E-1;9.693324089E0;9.695219378E0
1.548316677E0;7.657032460E-2;1.698904037E-1;9.678967476E0;9.680761187E0
1.549512667E0;8.374879509E-2;1.555334777E-1;9.664610863E0;9.666225098E0
1.550708708E0;9.092725813E-2;1.531406492E-1;9.669396400E0;9.671036479E0
1.551904698E0;9.571290761E-2;1.746760458E-1;9.690931320E0;9.692978001E0
1.553100688E0;9.092725813E-2;1.938186288E-1;9.724431038E0;9.726787365E0
1.554296729E0;8.135596663E-2;2.105683982E-1;9.765109062E0;9.767717893E0
1.555492719E0;7.657032460E-2;2.392822653E-1;9.812965393E0;9.816180969E0
1.556688708E0;6.699903309E-2;2.608176768E-1;9.851250648E0;9.854930445E0
1.557884750E0;5.982056633E-2;2.608176768E-1;9.884750366E0;9.888371664E0
1.559080740E0;6.699903309E-2;2.488535494E-1;9.908679008E0;9.912029896E0
1.560276729E0;7.657032460E-2;2.344966233E-1;9.920642853E0;9.923709301E0
1.561472771E0;6.939185411E-2;2.225325108E-1;9.930213928E0;9.932949442E0
1.562668760E0;4.785645381E-2;2.177468538E-1;9.944570541E0;9.947069276E0
1.563864750E0;4.307080805E-2;2.081755698E-1;9.961320877E0;9.963589001E0
1.565060792E0;5.503492057E-2;1.914258152E-1;9.973284721E0;9.975273471E0
1.566256781E0;7.417750359E-2;1.794617027E-1;9.987641335E0;9.989528929E0
1.567452771E0;8.374879509E-2;1.674975902E-1;1.000678444E1;1.000853656E1
1.568648813E0;6.939185411E-2;1.531406492E-1;1.002592659E1;1.002733620E1
1.569844802E0;5.742774159E-2;1.459621787E-1;1.003789139E1;1.003911681E1
1.571040792E0;7.178468257E-2;1.411765367E-1;1.004985523E1;1.005110313E1
1.572236833E0;1.028913707E-1;1.339980662E-1;1.005942631E1;1.006084488E1
1.573432823E0;1.148554832E-1;1.268195957E-1;1.005224800E1;1.005370404E1
1.574628865E0;1.124626622E-1;1.196411327E-1;1.003549862E1;1.003684185E1
1.575824854E0;1.028913707E-1;1.052841991E-1;1.000917721E1;1.001025973E1
1.577020844E0;9.810572863E-2;7.657032460E-2;9.978070259E0;9.978846318E0
1.578216885E0;1.004985496E-1;4.546362907E-2;9.958928108E0;9.959538943E0
1.579412875E0;9.810572863E-2;2.153540403E-2;9.949356079E0;9.949863059E0
1.580608865E0;1.028913707E-1;9.571290575E-3;9.942177773E0;9.942714775E0
1.581804906E0;1.052841991E-1;0.000000000E0;9.937392235E0;9.937949949E0
1.583000896E0;9.810572863E-2;-1.435693540E-2;9.932606697E0;9.933101563E0
1.584196885E0;8.374879509E-2;-2.632104978E-2;9.927821159E0;9.928209286E0
1.585392927E0;8.374879509E-2;-3.828516230E-2;9.920642853E0;9.921070216E0
1.586588917E0;9.571290761E-2;-4.785645381E-2;9.906285286E0;9.906863246E0
1.587784906E0;1.004985496E-1;-6.221338734E-2;9.894321442E0;9.895027400E0
1.588980948E0;1.100698411E-1;-8.374879509E-2;9.889535904E0;9.890503002E0
1.590176938E0;1.052841991E-1;-9.092725813E-2;9.879964828E0;9.880944162E0
1.591372927E0;8.374879509E-2;-8.853443712E-2;9.882357597E0;9.883109019E0
1.592568969E0;7.417750359E-2;-8.374879509E-2;9.889535904E0;9.890168682E0
1.593764958E0;7.417750359E-2;-7.657032460E-2;9.889535904E0;9.890110500E0
1.594960948E0;7.657032460E-2;-8.135596663E-2;9.877572060E0;9.878203865E0
1.596156990E0;7.178468257E-2;-9.332008660E-2;9.858428955E0;9.859131967E0
1.597352979E0;5.742774159E-2;-1.028913707E-1;9.841679573E0;9.842384945E0
1.598549021E0;4.546362907E-2;-9.810572863E-2;9.808179855E0;9.808775854E0
1.599745010E0;4.546362907E-2;-8.853443712E-2;9.767501831E0;9.768008871E0
1.600941000E0;5.503492057E-2;-8.374879509E-2;9.741181374E0;9.741696837E0
1.602137042E0;6.939185411E-2;-8.135596663E-2;9.717252731E0;9.717841050E0
1.603333031E0;6.460621208E-2;-7.896314561E-2;9.695717812E0;9.696254587E0
1.604529021E0;5.024927482E-2;-8.135596663E-2;9.669396400E0;9.669869210E0
1.605725063E0;4.785645381E-2;-6.699903309E-2;9.652647018E0;9.652998165E0
1.606921052E0;4.785645381E-2;-5.264209956E-2;9.650253296E0;9.650515536E0
1.608117042E0;5.024927482E-2;-3.828516230E-2;9.652647018E0;9.652853734E0
1.609313083E0;4.785645381E-2;-2.153540403E-2;9.659825325E0;9.659967874E0
1.610509073E0;4.785645381E-2;-1.435693540E-2;9.669396400E0;9.669525485E0
1.611705063E0;5.264209956E-2;0.000000000E0;9.683753014E0;9.683896097E0
1.612901104E0;5.264209956E-2;1.674975827E-2;9.702896118E0;9.703053376E0
1.614097094E0;4.785645381E-2;2.871387079E-2;9.722038269E0;9.722198457E0
1.615293083E0;4.067798331E-2;3.828516230E-2;9.734002113E0;9.734162398E0
1.616489125E0;4.546362907E-2;5.503492057E-2;9.753145218E0;9.753406452E0
1.617685115E0;4.785645381E-2;7.417750359E-2;9.774680138E0;9.775078738E0
1.618881104E0;4.307080805E-2;8.374879509E-2;9.789037704E0;9.789490698E0
1.620077146E0;4.307080805E-2;7.896314561E-2;9.805787086E0;9.806199603E0
1.621273135E0;4.785645381E-2;7.896314561E-2;9.810572624E0;9.811007116E0
1.622469125E0;5.982056633E-2;9.810572863E-2;9.801001549E0;9.801675091E0
1.623665167E0;6.699903309E-2;1.100698411E-1;9.791430473E0;9.792278333E0
1.624861156E0;6.939185411E-2;1.172483116E-1;9.781859398E0;9.782808169E0
1.626057146E0;6.699903309E-2;1.244267747E-1;9.762716293E0;9.763739054E0
1.627253188E0;6.221338734E-2;1.316052526E-1;9.750752449E0;9.751838994E0
1.628449177E0;6.699903309E-2;1.339980662E-1;9.743574142E0;9.744725826E0
1.629645219E0;8.374879509E-2;1.435693651E-1;9.753145218E0;9.754561377E0
1.630841208E0;1.004985496E-1;1.603191197E-1;9.772287369E0;9.774119019E0
1.632037198E0;1.028913707E-1;1.794617027E-1;9.796216011E0;9.798399934E0
1.633233240E0;1.076770201E-1;1.962114573E-1;9.824930191E0;9.827479155E0
1.634429229E0;1.148554832E-1;2.105683982E-1;9.868000984E0;9.870915573E0
1.635625219E0;1.076770201E-1;2.129612118E-1;9.915857315E0;9.918728402E0
1.636821260E0;1.052841991E-1;2.033899277E-1;9.934999466E0;9.937638885E0
1.638017250E0;1.076770201E-1;1.986042857E-1;9.939785004E0;9.942352032E0
1.639213240E0;1.052841991E-1;1.842473447E-1;9.946963310E0;9.949226650E0
1.640409281E0;9.332008660E-2;1.651047617E-1;9.951749802E0;9.953556768E0
1.641605271E0;8.374879509E-2;1.507478207E-1;9.946963310E0;9.948458065E0
1.642801260E0;8.374879509E-2;1.363908947E-1;9.927821159E0;9.929111204E0
1.643997302E0;8.853443712E-2;1.220339537E-1;9.903892517E0;9.905040011E0
1.645193292E0;8.853443712E-2;1.148554832E-1;9.870393753E0;9.871459009E0
1.646389281E0;8.614161611E-2;1.172483116E-1;9.844072342E0;9.845147425E0
1.647585323E0;8.853443712E-2;1.100698411E-1;9.834501266E0;9.835515689E0
1.648781313E0;8.853443712E-2;9.810572863E-2;9.836894035E0;9.837781627E0
1.649977302E0;9.571290761E-2;9.092725813E-2;9.846465111E0;9.847350096E0
1.651173344E0;9.332008660E-2;7.657032460E-2;9.860821724E0;9.861560562E0
1.652369333E0;9.092725813E-2;6.221338734E-2;9.879964828E0;9.880579097E0
1.653565323E0;1.076770201E-1;4.546362907E-2;9.896714211E0;9.897404379E0
1.654761365E0;1.100698411E-1;3.110669367E-2;9.908679008E0;9.909339165E0
1.655957354E0;1.028913707E-1;2.632104978E-2;9.908679008E0;9.909248161E0
1.657153344E0;1.052841991E-1;1.914258115E-2;9.908679008E0;9.909256829E0
1.658349385E0;1.124626622E-1;1.196411345E-2;9.911071777E0;9.911717044E0
1.659545375E0;1.124626622E-1;0.000000000E0;9.911071777E0;9.911709824E0
1.660741417E0;9.810572863E-2;-1.674975827E-2;9.908679008E0;9.909178825E0
1.661937406E0;6.939185411E-2;-2.871387079E-2;9.911071777E0;9.911356289E0
1.663133396E0;5.982056633E-2;-3.828516230E-2;9.915857315E0;9.916111665E0
1.664329438E0;5.742774159E-2;-4.307080805E-2;9.911071777E0;9.911331738E0
1.665525427E0;4.067798331E-2;-4.785645381E-2;9.899106979E0;9.899306235E0
1.666721417E0;3.349951655E-2;-4.785645381E-2;9.884750366E0;9.884922977E0
1.667917458E0;3.828516230E-2;-4.546362907E-2;9.875179291E0;9.875358157E0
1.669113448E0;5.024927482E-2;-5.264209956E-2;9.858428955E0;9.858697563E0
1.670309438E0;5.503492057E-2;-5.264209956E-2;9.848857880E0;9.849152327E0
1.671505479E0;4.785645381E-2;-5.264209956E-2;9.841679573E0;9.841936712E0
1.672701469E0;2.871387079E-2;-5.982056633E-2;9.827322960E0;9.827546975E0
1.673897458E0;1.435693540E-2;-6.939185411E-2;9.808179855E0;9.808435830E0
1.675093500E0;7.178467698E-3;-5.982056633E-2;9.798608780E0;9.798794010E0
1.676289490E0;9.571290575E-3;-4.785645381E-2;9.796216011E0;9.796337580E0
1.677485479E0;2.392822690E-2;-4.307080805E-2;9.791430473E0;9.791554441E0
1.678681521E0;3.589234129E-2;-4.067798331E-2;9.781859398E0;9.782009826E0
1.679877510E0;3.589234129E-2;-3.828516230E-2;9.769894600E0;9.770035543E0
1.681073500E0;3.110669367E-2;-4.307080805E-2;9.760323524E0;9.760468125E0
1.682269542E0;3.589234129E-2;-3.828516230E-2;9.748359680E0;9.748500934E0
1.683465531E0;4.546362907E-2;-3.110669367E-2;9.738788605E0;9.738944402E0
1.684661521E0;5.503492057E-2;-2.632104978E-2;9.731609344E0;9.731800557E0
1.685857563E0;6.221338734E-2;-1.435693540E-2;9.729216576E0;9.729426078E0
1.687053552E0;6.939185411E-2;-2.392822644E-3;9.729216576E0;9.729464329E0
1.688249542E0;8.614161611E-2;7.178467698E-3;9.726823807E0;9.727207887E0
1.689445583E0;1.004985496E-1;4.785645287E-3;9.726823807E0;9.727344151E0
1.690641573E0;9.810572863E-2;2.392822644E-3;9.734002113E0;9.734496782E0
1.691837615E0;9.092725813E-2;1.674975827E-2;9.738788605E0;9.739227475E0
1.693033604E0;8.374879509E-2;3.828516230E-2;9.753145218E0;9.753579920E0
1.694229594E0;8.614161611E-2;4.785645381E-2;9.769894600E0;9.770391554E0
1.695425635E0;8.853443712E-2;4.785645381E-2;9.774680138E0;9.775198227E0
1.696621625E0;9.092725813E-2;5.024927482E-2;9.767501831E0;9.768054298E0
1.697817615E0;9.092725813E-2;6.221338734E-2;9.767501831E0;9.768123171E0
1.699013656E0;8.374879509E-2;8.135596663E-2;9.779465675E0;9.780162655E0
1.700209646E0;9.092725813E-2;9.092725813E-2;9.791430473E0;9.792274825E0
1.701405635E0;9.810572863E-2;9.092725813E-2;9.812965393E0;9.813877027E0
1.702601677E0;1.052841991E-1;9.332008660E-2;9.834501266E0;9.835507540E0
1.703797667E0;1.076770201E-1;9.810572863E-2;9.841679573E0;9.842757535E0
1.704993656E0;1.124626622E-1;1.076770201E-1;9.851250648E0;9.852480984E0
1.706189698E0;1.100698411E-1;1.268195957E-1;9.868000984E0;9.869429670E0
1.707385688E0;8.853443712E-2;1.411765367E-1;9.879964828E0;9.881370055E0
1.708581677E0;8.374879509E-2;1.507478207E-1;9.889535904E0;9.891039337E0
1.709777719E0;9.571290761E-2;1.435693651E-1;9.896714211E0;9.898218289E0
1.710973708E0;9.810572863E-2;1.339980662E-1;9.901499748E0;9.902892379E0
1.712169698E0;8.853443712E-2;1.268195957E-1;9.901499748E0;9.902707651E0
1.713365740E0;8.614161611E-2;1.268195957E-1;9.882357597E0;9.883546695E0
1.714561729E0;9.092725813E-2;1.316052526E-1;9.860821724E0;9.862119082E0
1.715757771E0;9.092725813E-2;1.363908947E-1;9.848857880E0;9.850221915E0
1.716953760E0;8.614161611E-2;1.316052526E-1;9.836894035E0;9.838151482E0
1.718149750E0;8.853443712E-2;1.196411327E-1;9.820143700E0;9.821271538E0
1.719345792E0;9.092725813E-2;1.004985496E-1;9.808179855E0;9.809116158E0
1.720541781E0;8.135596663E-2;8.135596663E-2;9.812965393E0;9.813639865E0
1.721737771E0;7.657032460E-2;7.417750359E-2;9.812965393E0;9.813544473E0
1.722933813E0;8.853443712E-2;7.657032460E-2;9.815358162E0;9.816056092E0
1.724129802E0;1.004985496E-1;6.699903309E-2;9.829715729E0;9.830457779E0
1.725325792E0;1.196411327E-1;5.264209956E-2;9.844072342E0;9.844940094E0
1.726521833E0;1.268195957E-1;5.503492057E-2;9.872786522E0;9.873754390E0
1.727717823E0;1.148554832E-1;5.024927482E-2;9.896714211E0;9.897508219E0
1.728913813E0;9.332008660E-2;4.546362907E-2;9.901499748E0;9.902043872E0
1.730109854E0;8.135596663E-2;4.546362907E-2;9.915857315E0;9.916295277E0
1.731305844E0;9.092725813E-2;3.828516230E-2;9.925428391E0;9.925918711E0
1.732501885E0;9.810572863E-2;2.871387079E-2;9.925428391E0;9.925954763E0
1.733697875E0;9.810572863E-2;1.435693540E-2;9.915857315E0;9.916353017E0
1.734893865E0;9.332008660E-2;9.571290575E-3;9.891928673E0;9.892373482E0
1.736089906E0;8.614161611E-2;2.392822644E-3;9.870393753E0;9.870769927E0
1.737285896E0;8.135596663E-2;-9.571290575E-3;9.851250648E0;9.851591229E0
1.738481885E0;6.699903309E-2;-1.196411345E-2;9.824930191E0;9.825165916E0
1.739677927E0;5.982056633E-2;-7.178467698E-3;9.796216011E0;9.796401286E0
1.740873917E0;5.742774159E-2;-1.674975827E-2;9.781859398E0;9.782042311E0
1.742069906E0;5.742774159E-2;-3.110669367E-2;9.777072906E0;9.777291046E0
1.743265948E0;6.221338734E-2;-3.110669367E-2;9.777072906E0;9.777320326E0
1.744461938E0;7.417750359E-2;-3.110669367E-2;9.796216011E0;9.796546231E0
1.745657927E0;8.135596663E-2;-3.828516230E-2;9.822537422E0;9.822948944E0
1.746853969E0;8.374879509E-2;-4.067798331E-2;9.834501266E0;9.834941978E0
1.748049958E0;8.614161611E-2;-4.307080805E-2;9.846465111E0;9.846936105E0
1.749245948E0;8.135596663E-2;-4.307080805E-2;9.863214493E0;9.863644054E0
1.750441990E0;7.657032460E-2;-4.546362907E-2;9.860821724E0;9.861223810E0
1.751637979E0;9.092725813E-2;-5.982056633E-2;9.846465111E0;9.847066642E0
1.752833969E0;1.076770201E-1;-6.939185411E-2;9.832108498E0;9.832942951E0
1.754030010E0;1.076770201E-1;-5.503492057E-2;9.812965393E0;9.813710460E0
1.755226000E0;1.076770201E-1;-4.067798331E-2;9.784252167E0;9.784929203E0
1.756422042E0;1.076770201E-1;-2.871387079E-2;9.762716293E0;9.763352306E0
1.757618031E0;1.076770201E-1;-2.632104978E-2;9.748359680E0;9.748989875E0
1.758814021E0;1.124626622E-1;-3.110669367E-2;9.734002113E0;9.734701465E0
1.760010063E0;1.196411327E-1;-2.871387079E-2;9.724431038E0;9.725209381E0
1.761206052E0;1.100698411E-1;-9.571290575E-3;9.722038269E0;9.722666048E0
1.762402042E0;9.810572863E-2;4.785645287E-3;9.726823807E0;9.727319724E0
1.763598083E0;9.810572863E-2;4.785645287E-3;9.738788605E0;9.739283912E0
1.764794073E0;9.571290761E-2;4.785645287E-3;9.753145218E0;9.753616022E0
1.765990063E0;9.571290761E-2;1.196411345E-2;9.767501831E0;9.767978098E0
1.767186104E0;9.571290761E-2;2.153540403E-2;9.786644936E0;9.787136651E0
1.768382094E0;9.571290761E-2;2.871387079E-2;9.808179855E0;9.808688879E0
1.769578083E0;1.028913707E-1;3.110669367E-2;9.820143700E0;9.820731976E0
1.770774125E0;1.004985496E-1;3.110669367E-2;9.834501266E0;9.835063942E0
1.771970115E0;9.571290761E-2;3.589234129E-2;9.844072342E0;9.844603064E0
1.773166104E0;9.810572863E-2;5.024927482E-2;9.851250648E0;9.851867288E0
1.774362146E0;9.571290761E-2;6.221338734E-2;9.863214493E0;9.863875080E0
1.775558135E0;8.853443712E-2;6.221338734E-2;9.865608215E0;9.866201615E0
1.776754125E0;9.571290761E-2;6.460621208E-2;9.863214493E0;9.863890462E0
1.777950167E0;1.052841991E-1;7.417750359E-2;9.858428955E0;9.859270182E0
1.779146156E0;1.052841991E-1;8.853443712E-2;9.856036186E0;9.856996115E0
1.780342146E0;1.028913707E-1;1.028913707E-1;9.865608215E0;9.866681242E0
1.781538188E0;9.810572863E-2;1.148554832E-1;9.879964828E0;9.881119447E0
1.782734177E0;1.028913707E-1;1.100698411E-1;9.896714211E0;9.897861091E0
1.783930219E0;1.148554832E-1;1.028913707E-1;9.913464546E0;9.914663773E0
1.785126208E0;1.220339537E-1;1.052841991E-1;9.925428391E0;9.926736915E0
1.786322198E0;1.220339537E-1;1.124626622E-1;9.932606697E0;9.933992950E0
1.787518240E0;1.124626622E-1;1.100698411E-1;9.927821159E0;9.929068244E0
1.788714229E0;1.124626622E-1;1.148554832E-1;9.908679008E0;9.909982812E0
1.789910219E0;1.148554832E-1;1.196411327E-1;9.877572060E0;9.878964297E0
1.791106260E0;1.052841991E-1;1.124626622E-1;9.853643417E0;9.854847600E0
1.792302250E0;1.004985496E-1;1.100698411E-1;9.836894035E0;9.838023155E0
1.793498240E0;1.004985496E-1;1.076770201E-1;9.820143700E0;9.821248219E0
1.794694281E0;1.172483116E-1;1.076770201E-1;9.808179855E0;9.809471626E0
1.795890271E0;1.172483116E-1;1.004985496E-1;9.798608780E0;9.799825567E0
1.797086260E0;1.052841991E-1;9.092725813E-2;9.793823242E0;9.794811189E0
1.798282302E0;1.076770201E-1;8.614161611E-2;9.786644936E0;9.787616350E0
1.799478292E0;1.100698411E-1;7.896314561E-2;9.781859398E0;9.782797342E0
1.800674281E0;1.124626622E-1;7.657032460E-2;9.786644936E0;9.787590611E0
1.801870323E0;1.076770201E-1;7.178468257E-2;9.796216011E0;9.797070762E0
1.803066313E0;1.028913707E-1;6.699903309E-2;9.810572624E0;9.811340924E0
1.804262354E0;1.052841991E-1;6.939185411E-2;9.822537422E0;9.823346752E0
1.805458344E0;1.028913707E-1;6.939185411E-2;9.829715729E0;9.830499131E0
1.806654333E0;9.571290761E-2;6.699903309E-2;9.834501266E0;9.835195219E0
1.807850323E0;8.853443712E-2;5.503492057E-2;9.834501266E0;9.835053754E0
1.809046365E0;8.135596663E-2;4.785645381E-2;9.829715729E0;9.830168887E0
1.810242354E0;7.417750359E-2;5.742774159E-2;9.822537422E0;9.822985374E0
1.811438396E0;6.221338734E-2;4.785645381E-2;9.812965393E0;9.813279297E0
1.812634385E0;5.264209956E-2;2.153540403E-2;9.803394318E0;9.803559308E0
1.813830375E0;5.264209956E-2;1.435693540E-2;9.798608780E0;9.798760704E0
1.815026417E0;5.982056633E-2;1.674975827E-2;9.810572624E0;9.810769301E0
1.816222406E0;6.939185411E-2;2.392822690E-2;9.817750931E0;9.818025317E0
1.817418396E0;6.699903309E-2;2.392822690E-2;9.817750931E0;9.818008697E0
1.818614438E0;5.982056633E-2;1.674975827E-2;9.817750931E0;9.817947463E0
1.819810427E0;5.024927482E-2;9.571290575E-3;9.822537422E0;9.822670615E0
1.821006417E0;4.785645381E-2;7.178467698E-3;9.832108498E0;9.832227585E0
1.822202458E0;4.307080805E-2;9.571290575E-3;9.844072342E0;9.844171218E0
1.823398448E0;3.589234129E-2;7.178467698E-3;9.846465111E0;9.846533145E0
1.824594490E0;4.307080805E-2;1.435693540E-2;9.846465111E0;9.846569778E0
1.825790479E0;4.546362907E-2;1.196411345E-2;9.844072342E0;9.844184596E0
1.826986469E0;4.307080805E-2;4.785645287E-3;9.839286804E0;9.839382237E0
1.828182510E0;4.546362907E-2;1.196411345E-2;9.822537422E0;9.822649922E0
1.829378500E0;4.307080805E-2;0.000000000E0;9.798608780E0;9.798703441E0
1.830574490E0;5.264209956E-2;-1.196411345E-2;9.784252167E0;9.784401095E0
1.831770531E0;7.657032460E-2;2.392822644E-3;9.779465675E0;9.779765725E0
1.832966521E0;8.853443712E-2;9.571290575E-3;9.772287369E0;9.772693097E0
1.834162510E0;8.853443712E-2;7.178467698E-3;9.765109062E0;9.765513037E0
1.835358552E0;9.332008660E-2;9.571290575E-3;9.765109062E0;9.765559648E0
1.836554542E0;8.853443712E-2;2.153540403E-2;9.777072906E0;9.777497468E0
1.837750531E0;6.939185411E-2;4.067798331E-2;9.803394318E0;9.803724296E0
1.838946573E0;6.221338734E-2;5.024927482E-2;9.822537422E0;9.822862969E0
1.840142563E0;5.264209956E-2;3.828516230E-2;9.829715729E0;9.829931244E0
1.841338552E0;4.546362907E-2;2.871387079E-2;9.841679573E0;9.841826469E0
1.842534594E0;5.264209956E-2;3.589234129E-2;9.858428955E0;9.858634840E0
1.843730583E0;6.221338734E-2;4.785645381E-2;9.870393753E0;9.870705830E0
1.844926573E0;6.221338734E-2;5.503492057E-2;9.877572060E0;9.877921297E0
1.846122615E0;5.982056633E-2;5.742774159E-2;9.875179291E0;9.875527453E0
1.847318604E0;5.503492057E-2;6.221338734E-2;9.868000984E0;9.868350560E0
1.848514646E0;5.264209956E-2;7.178468257E-2;9.868000984E0;9.868402488E0
1.849710635E0;4.785645381E-2;6.939185411E-2;9.868000984E0;9.868361003E0
1.850906625E0;5.982056633E-2;8.135596663E-2;9.865608215E0;9.866125012E0
1.852102667E0;7.896314561E-2;1.028913707E-1;9.875179291E0;9.876030976E0
1.853298656E0;7.896314561E-2;9.810572863E-2;9.884750366E0;9.885552575E0
1.854494646E0;6.460621208E-2;8.614161611E-2;9.889535904E0;9.890122079E0
1.855690688E0;6.939185411E-2;9.332008660E-2;9.891928673E0;9.892612230E0
1.856886677E0;8.853443712E-2;1.004985496E-1;9.889535904E0;9.890442796E0
1.858082667E0;9.092725813E-2;9.332008660E-2;9.887143135E0;9.888001607E0
1.859278708E0;8.135596663E-2;8.374879509E-2;9.889535904E0;9.890225126E0
1.860474698E0;7.178468257E-2;7.417750359E-2;9.884750366E0;9.885289330E0
1.861670688E0;6.699903309E-2;7.657032460E-2;9.877572060E0;9.878096055E0
1.862866729E0;6.460621208E-2;8.853443712E-2;9.870393753E0;9.871002236E0
1.864062719E0;6.460621208E-2;9.810572863E-2;9.865608215E0;9.866307524E0
1.865258760E0;6.460621208E-2;1.004985496E-1;9.848857880E0;9.849582502E0
1.866454750E0;6.939185411E-2;9.810572863E-2;9.834501266E0;9.835235387E0
1.867650740E0;7.417750359E-2;8.853443712E-2;9.827322960E0;9.828001689E0
1.868846729E0;7.896314561E-2;8.135596663E-2;9.817750931E0;9.818405538E0
1.870042771E0;8.374879509E-2;8.374879509E-2;9.805787086E0;9.806502338E0
1.871238760E0;8.135596663E-2;8.374879509E-2;9.784252167E0;9.784948805E0
1.872434802E0;6.939185411E-2;9.332008660E-2;9.781859398E0;9.782550646E0
1.873630792E0;5.503492057E-2;9.092725813E-2;9.791430473E0;9.792007318E0
1.874826781E0;5.264209956E-2;8.614161611E-2;9.793823242E0;9.794343534E0
1.876022823E0;5.982056633E-2;8.614161611E-2;9.791430473E0;9.791992116E0
1.877218813E0;6.460621208E-2;7.178468257E-2;9.803394318E0;9.803870009E0
1.878414802E0;6.699903309E-2;7.657032460E-2;9.822537422E0;9.823064354E0
1.879610844E0;5.982056633E-2;7.896314561E-2;9.820143700E0;9.820643358E0
1.880806833E0;5.742774159E-2;7.657032460E-2;9.820143700E0;9.820610126E0
1.882002823E0;6.460621208E-2;7.417750359E-2;9.824930191E0;9.825422613E0
1.883198865E0;5.742774159E-2;6.460621208E-2;9.817750931E0;9.818131454E0
1.884394854E0;4.785645381E-2;5.503492057E-2;9.810572624E0;9.810843710E0
1.885590844E0;5.024927482E-2;4.546362907E-2;9.805787086E0;9.806021228E0
1.886786885E0;5.024927482E-2;4.546362907E-2;9.801001549E0;9.801235804E0
1.887982875E0;3.589234129E-2;4.307080805E-2;9.803394318E0;9.803554636E0
1.889178917E0;2.871387079E-2;3.589234129E-2;9.801001549E0;9.801109330E0
1.890374906E0;2.871387079E-2;3.589234129E-2;9.796216011E0;9.796323845E0
1.891570896E0;3.349951655E-2;3.349951655E-2;9.808179855E0;9.808294271E0
1.892766938E0;3.349951655E-2;2.392822690E-2;9.822537422E0;9.822623692E0
1.893962927E0;3.828516230E-2;1.435693540E-2;9.824930191E0;9.825015274E0
1.895158917E0;3.349951655E-2;9.571290575E-3;9.827322960E0;9.827384717E0
1.896354958E0;2.632104978E-2;9.571290575E-3;9.832108498E0;9.832148388E0
1.897550948E0;3.110669367E-2;1.435693540E-2;9.827322960E0;9.827382678E0
1.898746938E0;3.589234129E-2;2.392822690E-2;9.822537422E0;9.822632144E0
1.899942979E0;5.024927482E-2;3.110669367E-2;9.817750931E0;9.817928802E0
1.901138969E0;5.982056633E-2;3.349951655E-2;9.810572624E0;9.810812195E0
1.902334958E0;5.982056633E-2;3.828516230E-2;9.808179855E0;9.808436997E0
1.903531000E0;5.024927482E-2;3.589234129E-2;9.805787086E0;9.805981523E0
1.904726990E0;4.785645381E-2;3.349951655E-2;9.805787086E0;9.805961087E0
1.905922979E0;5.503492057E-2;3.349951655E-2;9.803394318E0;9.803606031E0
1.907119021E0;5.982056633E-2;2.392822690E-2;9.801001549E0;9.801213314E0
1.908315010E0;6.699903309E-2;1.914258115E-2;9.805787086E0;9.806034657E0
1.909511000E0;6.699903309E-2;2.632104978E-2;9.808179855E0;9.808444002E0
1.910707042E0;5.982056633E-2;3.828516230E-2;9.812965393E0;9.813222410E0
1.911903031E0;5.024927482E-2;3.349951655E-2;9.817750931E0;9.817936675E0
1.913099073E0;4.785645381E-2;2.153540403E-2;9.824930191E0;9.825070344E0
1.914295063E0;5.024927482E-2;2.392822690E-2;9.834501266E0;9.834658749E0
1.915491052E0;5.982056633E-2;4.307080805E-2;9.841679573E0;9.841955619E0
1.916687094E0;5.982056633E-2;5.024927482E-2;9.844072342E0;9.844382345E0
1.917883083E0;4.785645381E-2;4.067798331E-2;9.841679573E0;9.841879991E0
1.919079073E0;4.307080805E-2;3.589234129E-2;9.846465111E0;9.846624728E0
1.920275115E0;4.785645381E-2;4.785645381E-2;9.853643417E0;9.853875840E0
1.921471104E0;5.742774159E-2;5.024927482E-2;9.863214493E0;9.863509673E0
1.922667094E0;7.178468257E-2;3.589234129E-2;9.863214493E0;9.863541019E0
1.923863135E0;6.939185411E-2;3.349951655E-2;9.860821724E0;9.861122782E0
1.925059125E0;6.460621208E-2;3.589234129E-2;9.868000984E0;9.868277745E0
1.926255115E0;6.699903309E-2;4.307080805E-2;9.877572060E0;9.877893184E0
1.927451156E0;7.178468257E-2;5.024927482E-2;9.891928673E0;9.892316761E0
1.928647146E0;7.178468257E-2;5.982056633E-2;9.901499748E0;9.901940659E0
1.929843188E0;6.939185411E-2;7.417750359E-2;9.899106979E0;9.899628100E0
1.931039177E0;6.460621208E-2;7.417750359E-2;9.894321442E0;9.894810410E0
1.932235167E0;5.264209956E-2;6.699903309E-2;9.887143135E0;9.887510275E0
1.933431208E0;6.221338734E-2;6.460621208E-2;9.884750366E0;9.885157271E0
1.934627198E0;6.699903309E-2;6.221338734E-2;9.879964828E0;9.880387866E0
1.935823188E0;6.221338734E-2;6.699903309E-2;9.875179291E0;9.875602534E0
1.937019229E0;5.982056633E-2;7.178468257E-2;9.860821724E0;9.861264453E0
1.938215219E0;6.221338734E-2;6.939185411E-2;9.848857880E0;9.849298821E0
1.939411208E0;7.417750359E-2;6.939185411E-2;9.851250648E0;9.851774301E0
1.940607250E0;7.178468257E-2;7.657032460E-2;9.841679573E0;9.842239221E0
1.941803240E0;6.460621208E-2;8.374879509E-2;9.827322960E0;9.827892164E0
1.942999229E0;5.742774159E-2;7.896314561E-2;9.812965393E0;9.813451122E0
1.944195271E0;5.503492057E-2;6.699903309E-2;9.805787086E0;9.806170409E0
1.945391260E0;7.178468257E-2;6.939185411E-2;9.808179855E0;9.808688003E0
1.946587250E0;7.178468257E-2;7.417750359E-2;9.808179855E0;9.808723027E0
1.947783292E0;5.742774159E-2;7.657032460E-2;9.812965393E0;9.813432160E0
1.948979281E0;4.307080805E-2;7.417750359E-2;9.820143700E0;9.820518300E0
1.950175271E0;3.349951655E-2;6.699903309E-2;9.812965393E0;9.813251291E0
1.951371313E0;3.828516230E-2;6.460621208E-2;9.808179855E0;9.808467352E0
1.952567302E0;4.546362907E-2;6.460621208E-2;9.812965393E0;9.813283381E0
1.953763344E0;4.307080805E-2;6.221338734E-2;9.805787086E0;9.806079032E0
1.954959333E0;4.307080805E-2;6.939185411E-2;9.796216011E0;9.796556459E0
1.956155323E0;5.264209956E-2;7.417750359E-2;9.793823242E0;9.794245616E0
1.957351365E0;5.742774159E-2;6.939185411E-2;9.793823242E0;9.794237432E0
1.958547354E0;5.742774159E-2;6.939185411E-2;9.784252167E0;9.784666762E0
1.959743344E0;5.503492057E-2;6.221338734E-2;9.781859398E0;9.782212052E0
1.960939385E0;5.982056633E-2;5.742774159E-2;9.777072906E0;9.777424562E0
1.962135375E0;5.982056633E-2;4.785645381E-2;9.767501831E0;9.767802248E0
1.963331365E0;5.264209956E-2;4.785645381E-2;9.767501831E0;9.767760923E0
1.964527406E0;5.503492057E-2;5.024927482E-2;9.777072906E0;9.777356926E0
1.965723396E0;5.024927482E-2;4.785645381E-2;9.777072906E0;9.777319154E0
1.966919438E0;4.307080805E-2;4.307080805E-2;9.774680138E0;9.774869921E0
1.968115427E0;5.264209956E-2;4.067798331E-2;9.791430473E0;9.791656479E0
1.969311417E0;6.221338734E-2;3.589234129E-2;9.810572624E0;9.810835539E0
1.970507458E0;5.982056633E-2;2.871387079E-2;9.812965393E0;9.813189736E0
1.971703448E0;5.982056633E-2;3.589234129E-2;9.808179855E0;9.808427949E0
1.972899438E0;5.742774159E-2;4.307080805E-2;9.812965393E0;9.813227952E0
1.974095479E0;5.742774159E-2;3.349951655E-2;9.817750931E0;9.817976039E0
1.975291469E0;5.503492057E-2;3.349951655E-2;9.820143700E0;9.820355052E0
1.976487458E0;5.024927482E-2;4.546362907E-2;9.822537422E0;9.822771164E0
1.977683500E0;5.982056633E-2;4.546362907E-2;9.817750931E0;9.818038439E0
1.978879490E0;6.939185411E-2;3.110669367E-2;9.817750931E0;9.818045437E0
1.980075479E0;7.417750359E-2;2.153540403E-2;9.822537422E0;9.822841111E0
1.981271521E0;8.614161611E-2;2.392822690E-2;9.829715729E0;9.830122291E0
1.982467510E0;7.896314561E-2;3.110669367E-2;9.834501266E0;9.834867460E0
1.983663500E0;6.939185411E-2;3.110669367E-2;9.834501266E0;9.834795271E0
1.984859542E0;7.417750359E-2;2.153540403E-2;9.832108498E0;9.832411891E0
1.986055531E0;7.657032460E-2;1.914258115E-2;9.834501266E0;9.834817976E0
1.987251573E0;6.939185411E-2;2.153540403E-2;9.839286804E0;9.839555062E0
1.988447563E0;6.460621208E-2;2.392822690E-2;9.839286804E0;9.839528004E0
1.989643552E0;5.982056633E-2;3.110669367E-2;9.839286804E0;9.839517821E0
1.990839594E0;6.460621208E-2;3.828516230E-2;9.846465111E0;9.846751489E0
1.992035583E0;7.657032460E-2;4.067798331E-2;9.863214493E0;9.863595584E0
1.993231573E0;9.332008660E-2;4.307080805E-2;9.887143135E0;9.887677336E0
1.994427615E0;1.028913707E-1;4.546362907E-2;9.896714211E0;9.897353472E0
1.995623604E0;1.076770201E-1;4.546362907E-2;9.894321442E0;9.895011777E0
