"Time (s)"	"Acceleration x (m/s^2)"	"Acceleration y (m/s^2)"	"Acceleration z (m/s^2)"	"Absolute acceleration (m/s^2)"
3.173479300E-2	5.168496966E-1	1.024128079E0	9.899106979E0	9.965354531E0
3.293078300E-2	5.000999570E-1	1.014556766E0	9.923035622E0	9.987294996E0
3.412708500E-2	4.737788737E-1	9.930213690E-1	9.951749802E0	1.001238643E1
3.532317900E-2	4.283152521E-1	9.810572863E-1	9.975677490E0	1.003294915E1
3.651927200E-2	3.828516304E-1	9.810572863E-1	9.994820595E0	1.005014863E1
3.771536600E-2	3.589234054E-1	9.858429432E-1	1.000917721E1	1.006401216E1
3.891135600E-2	3.373879790E-1	9.834501147E-1	1.001874828E1	1.007255290E1
4.010734500E-2	3.158525825E-1	9.738788009E-1	1.003549862E1	1.008758818E1
4.130364700E-2	2.967100143E-1	9.762716293E-1	1.003549862E1	1.008723826E1
4.249974100E-2	2.751746178E-1	9.810572863E-1	1.003310490E1	1.008471062E1
4.369573100E-2	2.679961324E-1	9.762716293E-1	1.004028416E1	1.009119587E1
4.489172000E-2	2.584248483E-1	9.762716293E-1	1.004028416E1	1.009094622E1
4.608802200E-2	2.344966233E-1	9.762716293E-1	1.002592659E1	1.007607557E1
4.728411600E-2	2.081755698E-1	9.643075466E-1	1.001156998E1	1.006005763E1
4.848010600E-2	1.890329868E-1	9.619147182E-1	1.000439167E1	1.005230651E1
4.967609500E-2	1.866401732E-1	9.643075466E-1	9.992427826E0	1.004058452E1
5.087239700E-2	1.866401732E-1	9.619147182E-1	9.985248566E0	1.003321002E1
5.206849100E-2	1.818545163E-1	9.547362328E-1	9.975677490E0	1.002291044E1
5.326448100E-2	1.770688742E-1	9.308080077E-1	9.958928108E0	1.000389954E1
5.446047000E-2	1.722832322E-1	9.140582681E-1	9.939785004E0	9.983211405E0
5.565677200E-2	1.698904037E-1	9.164510965E-1	9.925428391E0	9.969095952E0
5.685286600E-2	1.746760458E-1	9.092726111E-1	9.918250084E0	9.961374058E0
5.804885600E-2	1.866401732E-1	8.925228715E-1	9.899106979E0	9.941013561E0
5.924484500E-2	1.914258152E-1	8.733802438E-1	9.875179291E0	9.915573756E0
6.044114700E-2	1.890329868E-1	8.566305041E-1	9.851250648E0	9.890231981E0
6.163724100E-2	1.866401732E-1	8.494520187E-1	9.832108498E0	9.870499521E0
6.283323100E-2	1.866401732E-1	8.470591903E-1	9.803394318E0	9.841691113E0
6.402922000E-2	2.057827413E-1	8.374879360E-1	9.769894600E0	9.807883211E0
6.522552200E-2	2.201396823E-1	8.183453679E-1	9.741181374E0	9.777973470E0
6.642161600E-2	2.177468538E-1	7.992027402E-1	9.710074425E0	9.745341659E0
6.761771000E-2	2.249253243E-1	7.896314859E-1	9.688538551E0	9.723265323E0
6.881369900E-2	2.464607358E-1	7.824530005E-1	9.674181938E0	9.708901677E0
7.000968900E-2	2.608176768E-1	7.800601721E-1	9.657432556E0	9.692395128E0
7.120599100E-2	2.775674164E-1	7.920243144E-1	9.635896683E0	9.672375668E0
7.240208500E-2	2.775674164E-1	8.039883971E-1	9.616754532E0	9.654294834E0
7.359817900E-2	2.703889608E-1	8.111668825E-1	9.600004196E0	9.638007183E0
7.479416800E-2	2.703889608E-1	8.207381964E-1	9.578469276E0	9.617369446E0
7.599015800E-2	2.703889608E-1	8.231309652E-1	9.554540634E0	9.593742831E0
7.718646000E-2	2.799602449E-1	8.207381964E-1	9.530612946E0	9.569982865E0
7.838255400E-2	2.967100143E-1	8.207381964E-1	9.516255379E0	9.556189850E0
7.957854300E-2	3.086741269E-1	8.231309652E-1	9.509077072E0	9.549626750E0
8.077453300E-2	3.182454109E-1	8.255237937E-1	9.501898766E0	9.543000043E0
8.197083500E-2	3.158525825E-1	8.327022791E-1	9.497113228E0	9.538779566E0
8.316692900E-2	3.014956415E-1	8.398807645E-1	9.494720459E0	9.536562059E0
8.436291800E-2	3.014956415E-1	8.494520187E-1	9.494720459E0	9.537409761E0
8.555890800E-2	3.134597540E-1	8.566305041E-1	9.504291534E0	9.547964726E0
8.675521000E-2	3.230310678E-1	8.566305041E-1	9.513862610E0	9.557810767E0
8.795130400E-2	3.086741269E-1	8.638089895E-1	9.516255379E0	9.560364121E0
8.914729300E-2	3.014956415E-1	8.853443861E-1	9.521040916E0	9.566867535E0
9.034328300E-2	2.991028428E-1	9.140582681E-1	9.525827408E0	9.574254688E0
9.153958500E-2	2.919243574E-1	9.379864931E-1	9.535398483E0	9.585867865E0
9.273567900E-2	2.967100143E-1	9.475577474E-1	9.552147865E0	9.603615536E0
9.393166800E-2	2.967100143E-1	9.595218897E-1	9.564111710E0	9.616701715E0
9.512765800E-2	2.967100143E-1	9.762716293E-1	9.571290970E0	9.625526165E0
9.632396000E-2	3.038884699E-1	9.858429432E-1	9.576076508E0	9.631483572E0
9.752005400E-2	3.110669553E-1	9.978070259E-1	9.585647583E0	9.642459287E0
9.871604300E-2	3.206382394E-1	1.009771109E0	9.609575272E0	9.667801377E0
9.991203300E-2	3.230310678E-1	1.007378340E0	9.631111145E0	9.689038243E0
1.011083350E-1	3.086741269E-1	1.012163997E0	9.645467758E0	9.703339835E0
1.023044290E-1	2.967100143E-1	1.019342422E0	9.655039787E0	9.713232680E0
1.035004180E-1	2.919243574E-1	1.012163997E0	9.657432556E0	9.714715609E0
1.046964080E-1	2.847459018E-1	1.004985452E0	9.657432556E0	9.713757232E0
1.059165120E-1	2.560320199E-1	1.014556766E0	9.664610863E0	9.721089494E0
1.071365120E-1	2.488535494E-1	1.016949654E0	9.674181938E0	9.730668572E0
1.083565120E-1	2.416750938E-1	1.024128079E0	9.674181938E0	9.731240483E0
1.095765120E-1	2.321037948E-1	1.026520967E0	9.667003632E0	9.724123440E0
1.107965120E-1	2.344966233E-1	1.019342422E0	9.671789169E0	9.728183457E0
1.120165120E-1	2.440679073E-1	1.019342422E0	9.678967476E0	9.735555429E0
1.132365120E-1	2.416750938E-1	1.024128079E0	9.686145782E0	9.743134264E0
1.144565120E-1	2.321037948E-1	1.021735311E0	9.700503349E0	9.756924743E0
1.156765120E-1	2.249253243E-1	1.014556766E0	9.707681656E0	9.763144983E0
1.168965120E-1	2.273181528E-1	1.016949654E0	9.707681656E0	9.763449353E0
1.181165120E-1	2.344966233E-1	1.014556766E0	9.724431038E0	9.780024187E0
1.193365120E-1	2.344966233E-1	1.002592683E0	9.755537987E0	9.809724877E0
1.205565120E-1	2.297109663E-1	9.906286001E-1	9.796216011E0	9.848855786E0
1.217765120E-1	2.321037948E-1	9.786644578E-1	9.824930191E0	9.876280147E0
1.229965120E-1	2.249253243E-1	9.714859724E-1	9.853643417E0	9.903972183E0
1.242165120E-1	2.153540403E-1	9.595218897E-1	9.889535904E0	9.938308710E0
1.254365120E-1	2.129612118E-1	9.523434043E-1	9.923035622E0	9.970904993E0
1.266565120E-1	2.033899277E-1	9.403793216E-1	9.944570541E0	9.991004153E0
1.278765120E-1	2.033899277E-1	9.284151793E-1	9.956535339E0	1.000179575E1
1.290965120E-1	2.033899277E-1	9.308080077E-1	9.966106415E0	1.001154574E1
1.303165120E-1	1.938186288E-1	9.308080077E-1	9.975677490E0	1.002088372E1
1.315365120E-1	1.914258152E-1	9.308080077E-1	9.982855797E0	1.002798371E1
1.327565120E-1	1.938186288E-1	9.379864931E-1	9.978070259E0	1.002393488E1
1.339765120E-1	2.033899277E-1	9.403793216E-1	9.975677490E0	1.002196698E1
1.351965120E-1	2.177468538E-1	9.499505758E-1	9.985248566E0	1.003269698E1
1.364165120E-1	2.201396823E-1	9.643075466E-1	9.980463028E0	1.002935655E1
1.376365120E-1	2.344966233E-1	9.714859724E-1	9.963713646E0	1.001370877E1
1.388565120E-1	2.488535494E-1	9.786644578E-1	9.951749802E0	1.000285141E1
1.400765120E-1	2.560320199E-1	9.834501147E-1	9.942177773E0	9.993979457E0
1.412965120E-1	2.656033039E-1	9.954141974E-1	9.939785004E0	9.993033596E0
1.425165120E-1	2.751746178E-1	1.007378340E0	9.927821159E0	9.982593108E0
1.437365120E-1	2.847459018E-1	1.019342422E0	9.913464546E0	9.969800325E0
1.449565120E-1	2.799602449E-1	1.024128079E0	9.899106979E0	9.955879421E0
1.461765120E-1	2.751746178E-1	1.021735311E0	9.889535904E0	9.945983336E0
1.473965120E-1	2.823530734E-1	1.019342422E0	9.877572060E0	9.934043086E0
1.486165120E-1	2.847459018E-1	1.014556766E0	9.860821724E0	9.916965803E0
1.498365120E-1	2.751746178E-1	1.012163997E0	9.846465111E0	9.902175125E0
1.510565120E-1	2.656033039E-1	1.009771109E0	9.824930191E0	9.880254858E0
1.522765120E-1	2.679961324E-1	1.012163997E0	9.812965393E0	9.868666966E0
1.534965120E-1	2.656033039E-1	1.026520967E0	9.810572624E0	9.867706199E0
1.547165120E-1	2.584248483E-1	1.026520967E0	9.796216011E0	9.853241945E0
1.559365120E-1	2.560320199E-1	1.014556766E0	9.781859398E0	9.837664921E0
1.571565120E-1	2.560320199E-1	1.007378340E0	9.781859398E0	9.836927203E0
1.583765120E-1	2.488535494E-1	1.004985452E0	9.779465675E0	9.834117792E0
1.595965120E-1	2.392822653E-1	1.007378340E0	9.769894600E0	9.824607250E0
1.608165120E-1	2.368894368E-1	1.007378340E0	9.765109062E0	9.819790360E0
1.620365120E-1	2.368894368E-1	1.009771109E0	9.760323524E0	9.815277357E0
1.632565120E-1	2.321037948E-1	1.012163997E0	9.762716293E0	9.817788832E0
1.644765120E-1	2.273181528E-1	1.014556766E0	9.760323524E0	9.815544523E0
1.656965120E-1	2.368894368E-1	1.019342422E0	9.757930756E0	9.813887518E0
1.668929700E-1	2.536391914E-1	1.014556766E0	9.757930756E0	9.813810213E0
1.680894290E-1	2.584248483E-1	1.002592683E0	9.769894600E0	9.824602587E0
1.692856790E-1	2.703889608E-1	1.000199914E0	9.784252167E0	9.838958305E0
1.704817720E-1	2.751746178E-1	1.002592683E0	9.791430473E0	9.846472661E0
1.716778660E-1	2.751746178E-1	1.002592683E0	9.801001549E0	9.855990286E0
1.728739600E-1	2.847459018E-1	1.002592683E0	9.810572624E0	9.865779621E0
1.740700540E-1	2.991028428E-1	9.978070259E-1	9.820143700E0	9.875236891E0
1.752660430E-1	2.967100143E-1	1.000199914E0	9.834501266E0	9.889684113E0
1.764620330E-1	2.799602449E-1	9.954141974E-1	9.848857880E0	9.902990897E0
1.776583350E-1	2.656033039E-1	9.930213690E-1	9.853643417E0	9.907114875E0
1.788544290E-1	2.512463629E-1	9.978070259E-1	9.848857880E0	9.902461569E0
1.800505220E-1	2.440679073E-1	1.000199914E0	9.851250648E0	9.904903248E0
1.812466160E-1	2.440679073E-1	1.000199914E0	9.865608215E0	9.919183155E0
1.824427100E-1	2.464607358E-1	1.002592683E0	9.877572060E0	9.931382823E0
1.836388040E-1	2.416750938E-1	9.954141974E-1	9.887143135E0	9.940063161E0
1.848347930E-1	2.440679073E-1	9.882357717E-1	9.896714211E0	9.948926135E0
1.860307830E-1	2.512463629E-1	9.978070259E-1	9.911071777E0	9.964340790E0
1.872270850E-1	2.440679073E-1	9.930213690E-1	9.923035622E0	9.975585022E0
1.884231790E-1	2.416750938E-1	9.858429432E-1	9.925428391E0	9.977195092E0
1.896192720E-1	2.488535494E-1	9.906286001E-1	9.927821159E0	9.980225753E0
1.908153660E-1	2.488535494E-1	9.906286001E-1	9.932606697E0	9.984986175E0
1.920114600E-1	2.488535494E-1	9.906286001E-1	9.939785004E0	9.992126852E0
1.932075540E-1	2.416750938E-1	9.930213690E-1	9.939785004E0	9.992188159E0
1.944036470E-1	2.344966233E-1	1.002592683E0	9.939785004E0	9.992972865E0
1.955997410E-1	2.321037948E-1	1.012163997E0	9.937392235E0	9.991502017E0
1.967958350E-1	2.273181528E-1	1.002592683E0	9.923035622E0	9.976146630E0
1.979919290E-1	2.177468538E-1	9.882357717E-1	9.918250084E0	9.969739634E0
1.991880220E-1	2.153540403E-1	9.954141974E-1	9.915857315E0	9.968021523E0
2.003840120E-1	2.081755698E-1	1.009771109E0	9.901499748E0	9.955032497E0
2.015800020E-1	2.009970993E-1	1.009771109E0	9.899106979E0	9.952505037E0
2.027763040E-1	1.986042857E-1	1.021735311E0	9.901499748E0	9.956057652E0
2.039723970E-1	1.938186288E-1	1.031306505E0	9.899106979E0	9.954570697E0
2.051684910E-1	1.962114573E-1	1.033699393E0	9.896714211E0	9.952486400E0
2.063645850E-1	1.962114573E-1	1.043270707E0	9.901499748E0	9.958243317E0
2.075606790E-1	2.009970993E-1	1.040877819E0	9.899106979E0	9.955709189E0
2.087566680E-1	2.129612118E-1	1.031306505E0	9.894321442E0	9.950203132E0
2.099526580E-1	2.225325108E-1	1.021735311E0	9.884750366E0	9.939907121E0
2.111489600E-1	2.273181528E-1	1.021735311E0	9.868000984E0	9.923359311E0
2.123451060E-1	2.321037948E-1	1.024128079E0	9.858428955E0	9.914198503E0
2.135411470E-1	2.464607358E-1	1.024128079E0	9.856036186E0	9.912165784E0
2.147372410E-1	2.440679073E-1	1.024128079E0	9.851250648E0	9.907348122E0
2.159333350E-1	2.416750938E-1	1.033699393E0	9.834501266E0	9.891630626E0
2.171294290E-1	2.656033039E-1	1.038485050E0	9.815358162E0	9.873715216E0
2.183254180E-1	2.919243574E-1	1.028913736E0	9.803394318E0	9.861562932E0
2.195214080E-1	3.038884699E-1	1.019342422E0	9.789037704E0	9.846657624E0
2.207177100E-1	3.014956415E-1	1.002592683E0	9.774680138E0	9.830588156E0
2.219138040E-1	3.062812984E-1	9.906286001E-1	9.760323524E0	9.815246740E0
2.231098970E-1	3.062812984E-1	9.882357717E-1	9.748359680E0	9.803108417E0
2.243059910E-1	2.991028428E-1	9.954141974E-1	9.736394882E0	9.791715745E0
2.255020850E-1	3.014956415E-1	1.004985452E0	9.729216576E0	9.785629799E0
2.266981790E-1	3.158525825E-1	1.014556766E0	9.724431038E0	9.782312983E0
2.278942720E-1	3.278166950E-1	1.009771109E0	9.710074425E0	9.767939742E0
2.290903660E-1	3.302095234E-1	9.954141974E-1	9.693324089E0	9.749893315E0
2.302864600E-1	3.278166950E-1	9.954141974E-1	9.695717812E0	9.752192425E0
2.314825540E-1	3.254238665E-1	1.002592683E0	9.707681656E0	9.764741467E0
2.326786470E-1	3.254238665E-1	1.002592683E0	9.717252731E0	9.774256669E0
2.338747410E-1	3.230310678E-1	1.000199914E0	9.722038269E0	9.778689945E0
2.350708350E-1	3.206382394E-1	1.012163997E0	9.731609344E0	9.789356734E0
2.362669290E-1	2.991028428E-1	1.019342422E0	9.748359680E0	9.806071483E0
2.374630220E-1	2.847459018E-1	1.012163997E0	9.750752449E0	9.807279414E0
2.386591160E-1	2.871387303E-1	1.002592683E0	9.748359680E0	9.803986801E0
2.398552100E-1	2.751746178E-1	9.930213690E-1	9.755537987E0	9.809808047E0
2.410513040E-1	2.560320199E-1	9.906286001E-1	9.757930756E0	9.811427524E0
2.422473970E-1	2.488535494E-1	1.000199914E0	9.762716293E0	9.816972924E0
2.434434910E-1	2.536391914E-1	1.014556766E0	9.777072906E0	9.832843581E0
2.446395850E-1	2.488535494E-1	1.019342422E0	9.789037704E0	9.845112810E0
2.458356790E-1	2.536391914E-1	1.016949654E0	9.815358162E0	9.871158761E0
2.470317720E-1	2.608176768E-1	1.012163997E0	9.844072342E0	9.899407158E0
2.482278660E-1	2.656033039E-1	1.012163997E0	9.860821724E0	9.916190102E0
2.494239600E-1	2.584248483E-1	1.014556766E0	9.872786522E0	9.928142955E0
2.506200540E-1	2.536391914E-1	1.016949654E0	9.899106979E0	9.954438127E0
2.518161470E-1	2.560320199E-1	1.024128079E0	9.915857315E0	9.971891346E0
2.530122410E-1	2.536391914E-1	1.033699393E0	9.920642853E0	9.977575952E0
2.542083350E-1	2.536391914E-1	1.045663476E0	9.927821159E0	9.985959038E0
2.554044290E-1	2.560320199E-1	1.050449133E0	9.934999466E0	9.993658497E0
2.566005220E-1	2.512463629E-1	1.057627559E0	9.934999466E0	9.994294131E0
2.577966160E-1	2.464607358E-1	1.060020447E0	9.934999466E0	9.994428479E0
2.589927100E-1	2.416750938E-1	1.048056364E0	9.946963310E0	1.000494418E1
2.601888040E-1	2.440679073E-1	1.043270707E0	9.958928108E0	1.001639815E1
2.613848970E-1	2.464607358E-1	1.043270707E0	9.968499184E0	1.002597290E1
2.625809910E-1	2.464607358E-1	1.040877819E0	9.973284721E0	1.003048242E1
2.637770850E-1	2.392822653E-1	1.038485050E0	9.987641335E0	1.004433605E1
2.649731790E-1	2.225325108E-1	1.033699393E0	9.997213364E0	1.005297619E1
2.661692720E-1	2.201396823E-1	1.028913736E0	9.985248566E0	1.004053355E1
2.673653660E-1	2.177468538E-1	1.014556766E0	9.973284721E0	1.002712059E1
2.685614600E-1	2.105683982E-1	1.007378340E0	9.970891953E0	1.002386335E1
2.697575540E-1	2.081755698E-1	1.000199914E0	9.968499184E0	1.002071419E1
2.709536470E-1	2.177468538E-1	9.930213690E-1	9.963713646E0	1.001544281E1
2.721497410E-1	2.297109663E-1	9.882357717E-1	9.956535339E0	1.000809537E1
2.733458350E-1	2.392822653E-1	9.882357717E-1	9.942177773E0	9.994036462E0
2.745419290E-1	2.584248483E-1	9.834501147E-1	9.930213928E0	9.982139359E0
2.757380220E-1	2.608176768E-1	9.762716293E-1	9.915857315E0	9.967214177E0
2.769341160E-1	2.584248483E-1	9.762716293E-1	9.901499748E0	9.952868278E0
2.781302100E-1	2.656033039E-1	9.690931439E-1	9.889535904E0	9.940453060E0
2.793263040E-1	2.751746178E-1	9.595218897E-1	9.872786522E0	9.923120328E0
2.805223970E-1	2.799602449E-1	9.475577474E-1	9.858428955E0	9.907818372E0
2.817184910E-1	2.799602449E-1	9.451649189E-1	9.839286804E0	9.888542829E0
2.829145850E-1	2.847459018E-1	9.379864931E-1	9.812965393E0	9.861804535E0
2.841106790E-1	3.062812984E-1	9.284151793E-1	9.793823242E0	9.842496466E0
2.853067720E-1	3.326023519E-1	9.188438654E-1	9.779465675E0	9.828166018E0
2.865028660E-1	3.469592929E-1	9.044869542E-1	9.760323524E0	9.808281843E0
2.876989600E-1	3.565305769E-1	8.973084688E-1	9.741181374E0	9.788916748E0
2.888950540E-1	3.661018610E-1	9.044869542E-1	9.731609344E0	9.780406313E0
2.900911470E-1	3.732803464E-1	9.044869542E-1	9.722038269E0	9.771154639E0
2.912872410E-1	3.684946895E-1	9.020941257E-1	9.712467194E0	9.761228464E0
2.924833350E-1	3.613162339E-1	8.997012973E-1	9.712467194E0	9.760739256E0
2.936794290E-1	3.541377485E-1	8.925228715E-1	9.714859962E0	9.762198252E0
2.948755220E-1	3.565305769E-1	8.949156404E-1	9.724431038E0	9.772028810E0
2.960716160E-1	3.661018610E-1	8.973084688E-1	9.724431038E0	9.772602114E0
2.972677100E-1	3.876372576E-1	8.973084688E-1	9.717252731E0	9.766290277E0
2.984638040E-1	3.948157430E-1	8.973084688E-1	9.717252731E0	9.766577835E0
2.996598970E-1	3.948157430E-1	8.925228715E-1	9.724431038E0	9.773281719E0
3.008559910E-1	4.019941986E-1	8.925228715E-1	9.729216576E0	9.778335829E0
3.020520850E-1	4.115654826E-1	8.853443861E-1	9.731609344E0	9.780462221E0
3.032481790E-1	4.211367965E-1	8.853443861E-1	9.726823807E0	9.776108236E0
3.044442720E-1	4.163511395E-1	8.973084688E-1	9.724431038E0	9.774613536E0
3.056403660E-1	4.235295951E-1	8.877372146E-1	9.729216576E0	9.778809225E0
3.068364600E-1	4.402793646E-1	8.781659007E-1	9.731609344E0	9.781065469E0
3.080325540E-1	4.498506486E-1	8.709874153E-1	9.738788605E0	9.788002256E0
3.092286470E-1	4.498506486E-1	8.662018180E-1	9.745966911E0	9.794720120E0
3.104247410E-1	4.498506486E-1	8.638089895E-1	9.755537987E0	9.804032486E0
3.116208350E-1	4.378865361E-1	8.662018180E-1	9.772287369E0	9.820369170E0
3.128169290E-1	4.259224236E-1	8.733802438E-1	9.786644936E0	9.834765989E0
3.140130220E-1	4.354937077E-1	8.757730722E-1	9.805787086E0	9.854445374E0
3.152091160E-1	4.474578202E-1	8.805587292E-1	9.820143700E0	9.869692217E0
3.164052100E-1	4.522434771E-1	8.781659007E-1	9.834501266E0	9.883982733E0
3.176013040E-1	4.426721931E-1	8.781659007E-1	9.846465111E0	9.895453966E0
3.187973970E-1	4.331009090E-1	8.757730722E-1	9.856036186E0	9.904342693E0
3.199934910E-1	4.235295951E-1	8.733802438E-1	9.863214493E0	9.910861239E0
3.211895850E-1	4.235295951E-1	8.805587292E-1	9.863214493E0	9.911496412E0
3.223856790E-1	4.283152521E-1	8.853443861E-1	9.868000984E0	9.916891250E0
3.235817720E-1	4.331009090E-1	8.853443861E-1	9.870393753E0	9.919480023E0
3.247778660E-1	4.354937077E-1	8.901300430E-1	9.865608215E0	9.915251470E0
3.259739600E-1	4.307080805E-1	8.973084688E-1	9.872786522E0	9.922831534E0
3.271700540E-1	4.259224236E-1	9.044869542E-1	9.877572060E0	9.928037890E0
3.283661470E-1	4.259224236E-1	9.164510965E-1	9.865608215E0	9.917233383E0
3.295622410E-1	4.187439680E-1	9.188438654E-1	9.858428955E0	9.910007166E0
3.307583350E-1	4.067798555E-1	9.236295223E-1	9.858428955E0	9.909953724E0
3.319544290E-1	3.996013701E-1	9.236295223E-1	9.848857880E0	9.900140114E0
3.331505220E-1	3.972085714E-1	9.236295223E-1	9.846465111E0	9.897663427E0
3.343466160E-1	3.972085714E-1	9.379864931E-1	9.848857880E0	9.901393581E0
3.355427100E-1	3.996013701E-1	9.427721500E-1	9.853643417E0	9.906704254E0
3.367388040E-1	3.996013701E-1	9.427721500E-1	9.853643417E0	9.906704254E0
3.379348970E-1	3.900300860E-1	9.379864931E-1	9.851250648E0	9.903488348E0
3.391309910E-1	3.876372576E-1	9.332008362E-1	9.851250648E0	9.902942279E0
3.403270850E-1	3.804588020E-1	9.427721500E-1	9.853643417E0	9.905950576E0
3.415231790E-1	3.637090325E-1	9.427721500E-1	9.853643417E0	9.905321407E0
3.427192720E-1	3.637090325E-1	9.379864931E-1	9.848857880E0	9.900106285E0
3.439153660E-1	3.661018610E-1	9.332008362E-1	9.836894035E0	9.887839938E0
3.451114600E-1	3.661018610E-1	9.379864931E-1	9.820143700E0	9.871629628E0
3.463075540E-1	3.493520916E-1	9.379864931E-1	9.808179855E0	9.859120530E0
3.475036470E-1	3.278166950E-1	9.308080077E-1	9.801001549E0	9.850558293E0
3.486997410E-1	3.158525825E-1	9.188438654E-1	9.801001549E0	9.849044028E0
3.498958350E-1	3.062812984E-1	9.044869542E-1	9.808179855E0	9.854557167E0
3.510919290E-1	2.991028428E-1	9.020941257E-1	9.812965393E0	9.858880572E0
3.522880220E-1	2.991028428E-1	9.020941257E-1	9.808179855E0	9.854117332E0
3.534841160E-1	3.086741269E-1	9.020941257E-1	9.803394318E0	9.849649419E0
3.546802100E-1	3.134597540E-1	8.997012973E-1	9.798608780E0	9.844818610E0
3.558763040E-1	3.062812984E-1	8.949156404E-1	9.791430473E0	9.837011383E0
3.570723970E-1	2.967100143E-1	8.925228715E-1	9.784252167E0	9.829355237E0
3.582684910E-1	2.847459018E-1	8.925228715E-1	9.779465675E0	9.824236673E0
3.594645850E-1	2.847459018E-1	8.973084688E-1	9.777072906E0	9.822290839E0
3.606606790E-1	2.847459018E-1	8.973084688E-1	9.774680138E0	9.819909089E0
3.618567720E-1	2.799602449E-1	9.020941257E-1	9.774680138E0	9.820209944E0
3.630528660E-1	2.823530734E-1	9.188438654E-1	9.781859398E0	9.828976070E0
3.642489600E-1	2.919243574E-1	9.140582681E-1	9.789037704E0	9.835953514E0
3.654450540E-1	3.086741269E-1	9.044869542E-1	9.801001549E0	9.847487381E0
3.666411470E-1	3.230310678E-1	9.068797827E-1	9.808179855E0	9.855311872E0
3.678372410E-1	3.397808075E-1	9.068797827E-1	9.815358162E0	9.863018695E0
3.690333350E-1	3.421736360E-1	9.116654396E-1	9.805787086E0	9.854018320E0
3.702294290E-1	3.445664644E-1	9.116654396E-1	9.798608780E0	9.846958614E0
3.714255220E-1	3.445664644E-1	9.140582681E-1	9.808179855E0	9.856704350E0
3.726216160E-1	3.349951804E-1	9.140582681E-1	9.810572624E0	9.858755474E0
3.738177100E-1	3.397808075E-1	9.044869542E-1	9.803394318E0	9.850892741E0
3.750138040E-1	3.421736360E-1	9.020941257E-1	9.803394318E0	9.850756151E0
3.762098970E-1	3.373879790E-1	9.044869542E-1	9.805787086E0	9.853191751E0
3.774059910E-1	3.397808075E-1	9.092726111E-1	9.808179855E0	9.856095563E0
3.786020850E-1	3.397808075E-1	9.068797827E-1	9.803394318E0	9.851112733E0
3.797981790E-1	3.326023519E-1	9.068797827E-1	9.803394318E0	9.850867749E0
3.809942720E-1	3.397808075E-1	9.116654396E-1	9.805787086E0	9.853935521E0
3.821903660E-1	3.517449200E-1	9.068797827E-1	9.801001549E0	9.849151577E0
3.833864600E-1	3.421736360E-1	8.949156404E-1	9.798608780E0	9.845338533E0
3.845825540E-1	3.349951804E-1	8.829515576E-1	9.796216011E0	9.841629609E0
3.857786470E-1	3.326023519E-1	8.709874153E-1	9.796216011E0	9.840482282E0
3.869747410E-1	3.373879790E-1	8.542376757E-1	9.798608780E0	9.841559159E0
3.881708350E-1	3.493520916E-1	8.422735929E-1	9.789037704E0	9.831415507E0
3.893669290E-1	3.493520916E-1	8.374879360E-1	9.779465675E0	9.821475542E0
3.905630220E-1	3.565305769E-1	8.279166222E-1	9.774680138E0	9.816156670E0
3.917591160E-1	3.732803464E-1	8.159525394E-1	9.769894600E0	9.811012040E0
3.929552100E-1	3.780659735E-1	8.087740541E-1	9.769894600E0	9.810600891E0
3.941513040E-1	3.756731451E-1	7.848458290E-1	9.767501831E0	9.806181994E0
3.953473970E-1	3.684946895E-1	7.728816867E-1	9.762716293E0	9.800192032E0
3.965434910E-1	3.780659735E-1	7.824530005E-1	9.753145218E0	9.791782689E0
3.977395850E-1	3.852444589E-1	7.848458290E-1	9.750752449E0	9.789870765E0
3.989356790E-1	3.756731451E-1	7.872386575E-1	9.745966911E0	9.784924428E0
4.001317720E-1	3.756731451E-1	7.944171429E-1	9.743574142E0	9.783121484E0
4.013278660E-1	3.708875179E-1	8.063812256E-1	9.743574142E0	9.783917687E0
4.025239600E-1	3.589234054E-1	8.231309652E-1	9.745966911E0	9.787248931E0
4.037200540E-1	3.541377485E-1	8.446664214E-1	9.753145218E0	9.796056173E0
4.049161470E-1	3.541377485E-1	8.638089895E-1	9.760323524E0	9.804870974E0
4.061122410E-1	3.445664644E-1	8.709874153E-1	9.765109062E0	9.809928650E0
4.073083350E-1	3.182454109E-1	8.685946465E-1	9.762716293E0	9.806445137E0
4.085044290E-1	2.991028428E-1	8.733802438E-1	9.757930756E0	9.801503364E0
4.097005220E-1	2.943171859E-1	8.757730722E-1	9.750752449E0	9.794425680E0
4.108966160E-1	2.967100143E-1	8.805587292E-1	9.745966911E0	9.790162999E0
4.120927100E-1	2.991028428E-1	9.020941257E-1	9.750752449E0	9.796959204E0
4.132888040E-1	2.871387303E-1	9.212366939E-1	9.745966911E0	9.793620206E0
4.144848970E-1	2.823530734E-1	9.427721500E-1	9.743574142E0	9.793149629E0
4.156809910E-1	2.775674164E-1	9.547362328E-1	9.753145218E0	9.803693518E0
4.168770850E-1	2.703889608E-1	9.595218897E-1	9.757930756E0	9.808720869E0
4.180731790E-1	2.727817893E-1	9.667003751E-1	9.767501831E0	9.819012758E0
4.192692720E-1	2.775674164E-1	9.714859724E-1	9.774680138E0	9.826759408E0
4.204653660E-1	2.703889608E-1	9.786644578E-1	9.779465675E0	9.832031489E0
4.216614600E-1	2.584248483E-1	9.882357717E-1	9.777072906E0	9.830287278E0
4.228575540E-1	2.536391914E-1	9.882357717E-1	9.772287369E0	9.825402953E0
4.240536470E-1	2.536391914E-1	9.930213690E-1	9.779465675E0	9.833024620E0
4.252497410E-1	2.512463629E-1	1.002592683E0	9.789037704E0	9.843453459E0
4.264458350E-1	2.608176768E-1	9.954141974E-1	9.796216011E0	9.850112863E0
4.276419290E-1	2.799602449E-1	9.906286001E-1	9.793823242E0	9.847776219E0
4.288380220E-1	2.823530734E-1	9.978070259E-1	9.779465675E0	9.834291587E0
4.300341160E-1	2.919243574E-1	9.906286001E-1	9.781859398E0	9.836225807E0
4.312302100E-1	3.014956415E-1	9.834501147E-1	9.784252167E0	9.838173825E0
4.324263040E-1	3.014956415E-1	9.762716293E-1	9.784252167E0	9.837458837E0
4.336223970E-1	3.062812984E-1	9.762716293E-1	9.779465675E0	9.832846151E0
4.348183870E-1	3.038884699E-1	9.786644578E-1	9.774680138E0	9.828250308E0
4.360143770E-1	3.062812984E-1	9.714859724E-1	9.779465675E0	9.832372151E0
4.372106790E-1	3.158525825E-1	9.690931439E-1	9.784252167E0	9.837199542E0
4.384067720E-1	3.158525825E-1	9.714859724E-1	9.793823242E0	9.846954938E0
4.396028660E-1	3.230310678E-1	9.834501147E-1	9.803394318E0	9.857893454E0
4.407989600E-1	3.182454109E-1	9.978070259E-1	9.803394318E0	9.859180450E0
4.419950540E-1	3.086741269E-1	1.007378340E0	9.803394318E0	9.859849440E0
4.431911470E-1	3.134597540E-1	1.007378340E0	9.812965393E0	9.869516601E0
4.443872410E-1	3.062812984E-1	1.004985452E0	9.815358162E0	9.871426434E0
4.455833350E-1	3.110669553E-1	1.009771109E0	9.820143700E0	9.876822496E0
4.467794290E-1	3.230310678E-1	1.016949654E0	9.829715729E0	9.887459076E0
4.479755220E-1	3.254238665E-1	1.012163997E0	9.841679573E0	9.898941028E0
4.491716160E-1	3.254238665E-1	1.009771109E0	9.853643417E0	9.910591656E0
4.503677100E-1	3.206382394E-1	1.009771109E0	9.863214493E0	9.919951951E0
4.515638040E-1	3.182454109E-1	1.014556766E0	9.872786522E0	9.929880124E0
4.527598970E-1	3.086741269E-1	1.031306505E0	9.882357597E0	9.940818100E0
4.539559910E-1	3.014956415E-1	1.040877819E0	9.899106979E0	9.958245089E0
4.551520850E-1	3.062812984E-1	1.045663476E0	9.908679008E0	9.968407096E0
4.563481790E-1	3.158525825E-1	1.045663476E0	9.908679008E0	9.968705766E0
4.575442720E-1	3.206382394E-1	1.045663476E0	9.908679008E0	9.968858544E0
4.587403660E-1	3.158525825E-1	1.043270707E0	9.915857315E0	9.975590354E0
4.599364600E-1	2.991028428E-1	1.036092162E0	9.913464546E0	9.971947091E0
4.611325540E-1	2.967100143E-1	1.038485050E0	9.915857315E0	9.974503212E0
4.623286470E-1	2.967100143E-1	1.052842021E0	9.915857315E0	9.976008192E0
4.635247410E-1	2.919243574E-1	1.062413216E0	9.903892517E0	9.964990149E0
4.647208350E-1	2.991028428E-1	1.055234790E0	9.899106979E0	9.959683828E0
4.659169290E-1	3.014956415E-1	1.045663476E0	9.901499748E0	9.961124886E0
4.671130220E-1	3.062812984E-1	1.036092162E0	9.891928673E0	9.950756156E0
4.683091160E-1	3.158525825E-1	1.036092162E0	9.882357597E0	9.941541204E0
4.695052100E-1	3.278166950E-1	1.043270707E0	9.875179291E0	9.935544453E0
4.707013040E-1	3.206382394E-1	1.048056364E0	9.870393753E0	9.931057540E0
4.718973970E-1	3.062812984E-1	1.048056364E0	9.868000984E0	9.928226115E0
4.730934910E-1	3.110669553E-1	1.052842021E0	9.846465111E0	9.907477689E0
4.742895850E-1	3.158525825E-1	1.055234790E0	9.827322960E0	9.888860393E0
4.754856790E-1	3.278166950E-1	1.048056364E0	9.822537422E0	9.883730436E0
4.766817720E-1	3.326023519E-1	1.031306505E0	9.815358162E0	9.874992318E0
4.778778660E-1	3.182454109E-1	1.019342422E0	9.798608780E0	9.856625850E0
4.790739600E-1	3.062812984E-1	1.021735311E0	9.781859398E0	9.839843726E0
4.802700540E-1	3.038884699E-1	1.024128079E0	9.774680138E0	9.832881486E0
4.814661470E-1	3.086741269E-1	1.028913736E0	9.767501831E0	9.826394823E0
4.826622410E-1	3.038884699E-1	1.033699393E0	9.757930756E0	9.817234604E0
4.838583350E-1	2.967100143E-1	1.033699393E0	9.750752449E0	9.809879948E0
4.850544290E-1	3.014956415E-1	1.040877819E0	9.741181374E0	9.801272408E0
4.862505220E-1	3.134597540E-1	1.043270707E0	9.729216576E0	9.790011540E0
4.874466160E-1	3.134597540E-1	1.038485050E0	9.724431038E0	9.784746661E0
4.886427100E-1	3.062812984E-1	1.031306505E0	9.712467194E0	9.771868825E0
4.898388040E-1	3.038884699E-1	1.021735311E0	9.698110580E0	9.756517825E0
4.910348970E-1	3.014956415E-1	1.016949654E0	9.690931320E0	9.748806905E0
4.922309910E-1	2.991028428E-1	1.014556766E0	9.686145782E0	9.743726600E0
4.934270850E-1	2.943171859E-1	1.009771109E0	9.671789169E0	9.728811132E0
4.946231790E-1	2.943171859E-1	1.002592683E0	9.659825325E0	9.716174144E0
4.958192720E-1	3.038884699E-1	9.978070259E-1	9.640682220E0	9.696943887E0
4.970153660E-1	3.206382394E-1	9.930213690E-1	9.619147301E0	9.675582417E0
4.982114600E-1	3.349951804E-1	9.714859724E-1	9.607182503E0	9.661985428E0
4.994075540E-1	3.278166950E-1	9.571290612E-1	9.595218658E0	9.648408207E0
5.006036470E-1	3.206382394E-1	9.619147182E-1	9.583254814E0	9.636745386E0
5.017997410E-1	3.254238665E-1	9.667003751E-1	9.583254814E0	9.637384663E0
5.029958350E-1	3.302095234E-1	9.738788009E-1	9.580862045E0	9.635891022E0
5.041919290E-1	3.254238665E-1	9.738788009E-1	9.573683739E0	9.628590808E0
5.053880220E-1	3.110669553E-1	9.595218897E-1	9.578469276E0	9.631433880E0
5.065841160E-1	3.110669553E-1	9.451649189E-1	9.590433121E0	9.641914064E0
5.077802100E-1	3.206382394E-1	9.403793216E-1	9.600004196E0	9.651279849E0
5.089763040E-1	3.230310678E-1	9.332008362E-1	9.611968994E0	9.662564919E0
5.101723970E-1	3.254238665E-1	9.236295223E-1	9.623932838E0	9.673627834E0
5.113684910E-1	3.326023519E-1	9.188438654E-1	9.640682220E0	9.690080085E0
5.125645850E-1	3.326023519E-1	9.260223508E-1	9.659825325E0	9.709807775E0
5.137606790E-1	3.278166950E-1	9.260223508E-1	9.671789169E0	9.721547558E0
5.149567720E-1	3.254238665E-1	9.212366939E-1	9.683753014E0	9.732915810E0
5.161528660E-1	3.254238665E-1	9.260223508E-1	9.707681656E0	9.757176908E0
5.173489600E-1	3.158525825E-1	9.260223508E-1	9.734002113E0	9.783050516E0
5.185450540E-1	2.919243574E-1	9.188438654E-1	9.757930756E0	9.805442698E0
5.197411470E-1	2.679961324E-1	9.188438654E-1	9.786644936E0	9.833336925E0
5.209372410E-1	2.416750938E-1	9.355936646E-1	9.812965393E0	9.860427585E0
5.221333350E-1	2.297109663E-1	9.547362328E-1	9.834501266E0	9.883405464E0
5.233294290E-1	2.344966233E-1	9.619147182E-1	9.853643417E0	9.903259927E0
5.245255220E-1	2.321037948E-1	9.643075466E-1	9.879964828E0	9.929625684E0
5.257216160E-1	2.177468538E-1	9.786644578E-1	9.899106979E0	9.949749585E0
5.269177100E-1	2.057827413E-1	9.858429432E-1	9.925428391E0	9.976390208E0
5.281138040E-1	2.081755698E-1	9.978070259E-1	9.949356079E0	1.000143201E1
5.293098970E-1	2.105683982E-1	1.012163997E0	9.958928108E0	1.001244546E1
5.305059390E-1	2.081755698E-1	1.016949654E0	9.958928108E0	1.001288034E1
5.317020850E-1	2.057827413E-1	1.028913736E0	9.961320877E0	1.001643268E1
5.328981790E-1	2.177468538E-1	1.031306505E0	9.970891953E0	1.002644968E1
5.340942720E-1	2.344966233E-1	1.028913736E0	9.978070259E0	1.003372006E1
5.352903140E-1	2.368894368E-1	1.040877819E0	9.975677490E0	1.003263099E1
5.364864600E-1	2.464607358E-1	1.055234790E0	9.966106415E0	1.002484615E1
5.376825020E-1	2.679961324E-1	1.060020447E0	9.949356079E0	1.000925330E1
5.388785950E-1	2.799602449E-1	1.060020447E0	9.934999466E0	9.995310674E0
5.400746890E-1	2.847459018E-1	1.062413216E0	9.927821159E0	9.988565214E0
5.412708350E-1	2.943171859E-1	1.069591761E0	9.920642853E0	9.982474831E0
5.424669290E-1	3.110669553E-1	1.074377418E0	9.903892517E0	9.966851884E0
5.436629700E-1	3.206382394E-1	1.069591761E0	9.891928673E0	9.954752045E0
5.448590640E-1	3.278166950E-1	1.057627559E0	9.882357597E0	9.944195871E0
5.460551580E-1	3.373879790E-1	1.055234790E0	9.875179291E0	9.937128214E0
5.472512520E-1	3.373879790E-1	1.057627559E0	9.872786522E0	9.935004802E0
5.484473970E-1	3.278166950E-1	1.043270707E0	9.863214493E0	9.923652437E0
5.496434390E-1	3.349951804E-1	1.038485050E0	9.856036186E0	9.916255456E0
5.508395330E-1	3.421736360E-1	1.036092162E0	9.860821724E0	9.921006745E0
5.520356790E-1	3.326023519E-1	1.028913736E0	9.856036186E0	9.915177109E0
5.532317720E-1	3.254238665E-1	1.028913736E0	9.844072342E0	9.903046220E0
5.544278140E-1	3.326023519E-1	1.024128079E0	9.834501266E0	9.893274372E0
5.556239080E-1	3.326023519E-1	1.014556766E0	9.824930191E0	9.882773043E0
5.568200020E-1	3.326023519E-1	1.002592683E0	9.812965393E0	9.869655831E0
5.580160950E-1	3.302095234E-1	9.954141974E-1	9.781859398E0	9.837919548E0
5.592121890E-1	3.206382394E-1	9.906286001E-1	9.748359680E0	9.803808972E0
5.604082830E-1	3.086741269E-1	9.834501147E-1	9.729216576E0	9.783665418E0
5.616044290E-1	3.110669553E-1	9.690931439E-1	9.712467194E0	9.765650166E0
5.628004700E-1	3.134597540E-1	9.619147182E-1	9.681360245E0	9.734077929E0
5.639965640E-1	3.134597540E-1	9.619147182E-1	9.652647018E0	9.705520666E0
5.651926580E-1	3.206382394E-1	9.499505758E-1	9.638289452E0	9.690296101E0
5.663887520E-1	3.206382394E-1	9.284151793E-1	9.626325607E0	9.676306543E0
5.675848450E-1	3.206382394E-1	9.260223508E-1	9.611968994E0	9.661794565E0
5.687809390E-1	3.086741269E-1	9.260223508E-1	9.597611427E0	9.647120929E0
5.699770330E-1	2.943171859E-1	9.188438654E-1	9.578469276E0	9.626939822E0
5.711731270E-1	2.871387303E-1	9.188438654E-1	9.564111710E0	9.612437542E0
5.723692200E-1	2.847459018E-1	9.212366939E-1	9.564111710E0	9.612595387E0
5.735653140E-1	2.895315289E-1	9.308080077E-1	9.568898201E0	9.618422159E0
5.747614080E-1	2.943171859E-1	9.332008362E-1	9.573683739E0	9.623559982E0
5.759575020E-1	2.943171859E-1	9.260223508E-1	9.568898201E0	9.618105467E0
5.771535950E-1	3.014956415E-1	9.140582681E-1	9.564111710E0	9.612420867E0
5.783496890E-1	3.062812984E-1	9.116654396E-1	9.561718941E0	9.609964163E0
5.795457830E-1	3.038884699E-1	9.068797827E-1	9.568898201E0	9.616579014E0
5.807418770E-1	2.943171859E-1	8.973084688E-1	9.583254814E0	9.629670707E0
5.819379700E-1	3.038884699E-1	8.949156404E-1	9.590433121E0	9.636889003E0
5.831340640E-1	3.206382394E-1	8.877372146E-1	9.597611427E0	9.643911621E0
5.843301580E-1	3.302095234E-1	8.757730722E-1	9.614361763E0	9.659812054E0
5.855262520E-1	3.158525825E-1	8.590233326E-1	9.628718376E0	9.672119804E0
5.867223450E-1	2.943171859E-1	8.422735929E-1	9.643074989E0	9.684262629E0
5.879184390E-1	2.943171859E-1	8.350951076E-1	9.652647018E0	9.693172902E0
5.891145330E-1	2.871387303E-1	8.470591903E-1	9.652647018E0	9.693995687E0
5.903106270E-1	2.751746178E-1	8.566305041E-1	9.662218094E0	9.704019548E0
5.915067200E-1	2.703889608E-1	8.638089895E-1	9.676574707E0	9.718815474E0
5.927028140E-1	2.584248483E-1	8.757730722E-1	9.693324089E0	9.736236119E0
5.938989080E-1	2.584248483E-1	8.853443861E-1	9.700503349E0	9.744248730E0
5.950950020E-1	2.751746178E-1	8.829515576E-1	9.705288887E0	9.749254172E0
5.962910950E-1	2.751746178E-1	8.638089895E-1	9.712467194E0	9.754686362E0
5.974871890E-1	2.656033039E-1	8.542376757E-1	9.724431038E0	9.765491597E0
5.986832830E-1	2.727817893E-1	8.590233326E-1	9.736394882E0	9.778022105E0
5.998793770E-1	2.919243574E-1	8.614161611E-1	9.738788605E0	9.781168699E0
6.010754700E-1	2.895315289E-1	8.614161611E-1	9.743574142E0	9.785862424E0
6.022715640E-1	2.799602449E-1	8.709874153E-1	9.755537987E0	9.798342627E0
6.034676580E-1	2.967100143E-1	8.805587292E-1	9.760323524E0	9.804454896E0
6.046637520E-1	3.134597540E-1	8.877372146E-1	9.762716293E0	9.808005088E0
6.058598450E-1	3.206382394E-1	8.973084688E-1	9.769894600E0	9.816252435E0
6.070559390E-1	3.278166950E-1	9.020941257E-1	9.781859398E0	9.828835683E0
6.082520330E-1	3.397808075E-1	9.092726111E-1	9.791430473E0	9.839427747E0
6.094481270E-1	3.397808075E-1	9.260223508E-1	9.784252167E0	9.833847612E0
6.106442200E-1	3.373879790E-1	9.379864931E-1	9.772287369E0	9.822995965E0
6.118403140E-1	3.445664644E-1	9.427721500E-1	9.765109062E0	9.816562554E0
6.130364080E-1	3.445664644E-1	9.451649189E-1	9.760323524E0	9.812032311E0
6.142325020E-1	3.421736360E-1	9.571290612E-1	9.750752449E0	9.803588739E0
6.154285950E-1	3.421736360E-1	9.714859724E-1	9.743574142E0	9.797862260E0
6.166246890E-1	3.373879790E-1	9.714859724E-1	9.741181374E0	9.795316748E0
6.178207830E-1	3.397808075E-1	9.667003751E-1	9.738788605E0	9.792546354E0
6.190168770E-1	3.421736360E-1	9.810572863E-1	9.736394882E0	9.791677155E0
6.202129700E-1	3.397808075E-1	1.000199914E0	9.736394882E0	9.793530322E0
6.214090640E-1	3.349951804E-1	1.016949654E0	9.741181374E0	9.799848107E0
6.226051580E-1	3.349951804E-1	1.031306505E0	9.741181374E0	9.801348348E0
6.238012520E-1	3.349951804E-1	1.036092162E0	9.741181374E0	9.801853054E0
6.249973450E-1	3.349951804E-1	1.045663476E0	9.743574142E0	9.805247113E0
6.261934390E-1	3.349951804E-1	1.055234790E0	9.750752449E0	9.813404891E0
6.273895330E-1	3.349951804E-1	1.062413216E0	9.769894600E0	9.833198061E0
6.285856270E-1	3.326023519E-1	1.071984529E0	9.784252167E0	9.848419448E0
6.297817200E-1	3.278166950E-1	1.074377418E0	9.786644936E0	9.850896899E0
6.309778140E-1	3.182454109E-1	1.069591761E0	9.781859398E0	9.845307509E0
6.321739080E-1	3.134597540E-1	1.071984529E0	9.774680138E0	9.838281336E0
6.333700020E-1	3.182454109E-1	1.071984529E0	9.767501831E0	9.831303219E0
6.345660950E-1	3.182454109E-1	1.079162955E0	9.753145218E0	9.817826362E0
6.357621890E-1	3.182454109E-1	1.083948612E0	9.729216576E0	9.794584213E0
6.369582830E-1	3.278166950E-1	1.074377418E0	9.712467194E0	9.777206636E0
6.381543770E-1	3.349951804E-1	1.086341500E0	9.693324089E0	9.759758784E0
6.393504700E-1	3.397808075E-1	1.079162955E0	9.674181938E0	9.740114982E0
6.405465640E-1	3.469592929E-1	1.069591761E0	9.667003632E0	9.732182001E0
6.417426580E-1	3.493520916E-1	1.074377418E0	9.655039787E0	9.720911841E0
6.429387520E-1	3.517449200E-1	1.074377418E0	9.645467758E0	9.711491111E0
6.441348450E-1	3.421736360E-1	1.071984529E0	9.640682220E0	9.706131428E0
6.453309390E-1	3.230310678E-1	1.067198873E0	9.638289452E0	9.702571105E0
6.465270330E-1	3.038884699E-1	1.060020447E0	9.643074989E0	9.705920193E0
6.477231270E-1	2.871387303E-1	1.043270707E0	9.652647018E0	9.713107478E0
6.489192200E-1	2.751746178E-1	1.028913736E0	9.662218094E0	9.720742926E0
6.501153140E-1	2.703889608E-1	1.031306505E0	9.667003632E0	9.725618875E0
6.513114080E-1	2.560320199E-1	1.028913736E0	9.671789169E0	9.729733892E0
6.525075020E-1	2.440679073E-1	1.028913736E0	9.676574707E0	9.734183617E0
6.537035950E-1	2.344966233E-1	1.026520967E0	9.678967476E0	9.736074433E0
6.548996890E-1	2.321037948E-1	1.024128079E0	9.683753014E0	9.740522723E0
6.560957830E-1	2.297109663E-1	1.036092162E0	9.690931320E0	9.748866803E0
6.572918770E-1	2.273181528E-1	1.045663476E0	9.695717812E0	9.754590177E0
6.584879700E-1	2.297109663E-1	1.050449133E0	9.695717812E0	9.755160398E0
6.596840640E-1	2.225325108E-1	1.057627559E0	9.693324089E0	9.753390624E0
6.608801580E-1	2.177468538E-1	1.055234790E0	9.693324089E0	9.753023431E0
6.620762520E-1	2.129612118E-1	1.050449133E0	9.686145782E0	9.745266337E0
6.632723450E-1	2.009970993E-1	1.052842021E0	9.676574707E0	9.735757506E0
6.644684390E-1	1.986042857E-1	1.057627559E0	9.678967476E0	9.738605193E0
6.656645330E-1	2.081755698E-1	1.055234790E0	9.681360245E0	9.740923658E0
6.668606270E-1	2.057827413E-1	1.050449133E0	9.671789169E0	9.730842495E0
6.680567200E-1	2.033899277E-1	1.050449133E0	9.662218094E0	9.721279203E0
6.692528140E-1	2.033899277E-1	1.055234790E0	9.647860527E0	9.707528041E0
6.704489080E-1	2.057827413E-1	1.050449133E0	9.635896683E0	9.695168632E0
6.716450020E-1	2.153540403E-1	1.040877819E0	9.635896683E0	9.694344170E0
6.728410950E-1	2.249253243E-1	1.033699393E0	9.645467758E0	9.703307380E0
6.740371890E-1	2.344966233E-1	1.031306505E0	9.640682220E0	9.698522333E0
6.752332830E-1	2.440679073E-1	1.021735311E0	9.631111145E0	9.688230699E0
6.764293770E-1	2.512463629E-1	1.012163997E0	9.626325607E0	9.682651775E0
6.776254700E-1	2.560320199E-1	1.012163997E0	9.631111145E0	9.687534786E0
6.788215640E-1	2.584248483E-1	1.019342422E0	9.631111145E0	9.688350957E0
6.800176580E-1	2.727817893E-1	1.019342422E0	9.638289452E0	9.695880178E0
6.812137520E-1	2.847459018E-1	1.014556766E0	9.645467758E0	9.702858029E0
6.824098450E-1	2.799602449E-1	1.014556766E0	9.647860527E0	9.705097419E0
6.836059390E-1	2.751746178E-1	1.019342422E0	9.652647018E0	9.710220106E0
6.848020330E-1	2.871387303E-1	1.012163997E0	9.655039787E0	9.712194289E0
6.859981270E-1	3.062812984E-1	1.004985452E0	9.650253296E0	9.707275244E0
6.871942200E-1	3.182454109E-1	1.012163997E0	9.643074989E0	9.701270605E0
6.883903140E-1	3.230310678E-1	1.019342422E0	9.645467758E0	9.704558533E0
6.895864080E-1	3.230310678E-1	1.024128079E0	9.652647018E0	9.712197581E0
6.907825020E-1	3.278166950E-1	1.033699393E0	9.659825325E0	9.720505313E0
6.919785950E-1	3.326023519E-1	1.043270707E0	9.662218094E0	9.724067903E0
6.931746890E-1	3.397808075E-1	1.050449133E0	9.657432556E0	9.720334251E0
6.943707310E-1	3.397808075E-1	1.057627559E0	9.659825325E0	9.723489721E0
6.955668770E-1	3.445664644E-1	1.052842021E0	9.667003632E0	9.730270376E0
6.967629700E-1	3.421736360E-1	1.052842021E0	9.674181938E0	9.737317664E0
6.979590640E-1	3.445664644E-1	1.062413216E0	9.681360245E0	9.745572537E0
6.991551060E-1	3.469592929E-1	1.062413216E0	9.688538551E0	9.752788414E0
7.003511990E-1	3.493520916E-1	1.050449133E0	9.695717812E0	9.758710681E0
7.015472930E-1	3.517449200E-1	1.040877819E0	9.702896118E0	9.764903697E0
7.027433870E-1	3.421736360E-1	1.031306505E0	9.717252731E0	9.777815531E0
7.039394810E-1	3.349951804E-1	1.024128079E0	9.738788605E0	9.798217368E0
7.051355740E-1	3.373879790E-1	1.026520967E0	9.760323524E0	9.819953729E0
7.063316680E-1	3.517449200E-1	1.019342422E0	9.786644936E0	9.845872361E0
7.075277620E-1	3.637090325E-1	1.012163997E0	9.805787086E0	9.864594295E0
7.087238560E-1	3.732803464E-1	1.009771109E0	9.810572624E0	9.869463568E0
7.099199490E-1	3.756731451E-1	1.004985452E0	9.817750931E0	9.876201669E0
7.111160430E-1	3.661018610E-1	9.978070259E-1	9.834501266E0	9.891767516E0
7.123121370E-1	3.613162339E-1	9.954141974E-1	9.841679573E0	9.898487544E0
7.135082310E-1	3.541377485E-1	1.000199914E0	9.841679573E0	9.898710534E0
7.147043240E-1	3.230310678E-1	9.930213690E-1	9.846465111E0	9.901682468E0
7.159004180E-1	2.991028428E-1	9.930213690E-1	9.851250648E0	9.905689945E0
7.170965120E-1	2.991028428E-1	1.000199914E0	9.863214493E0	9.918309458E0
7.182926060E-1	3.110669553E-1	1.002592683E0	9.870393753E0	9.926058008E0
7.194886990E-1	3.062812984E-1	9.930213690E-1	9.875179291E0	9.929706224E0
7.206847930E-1	2.895315289E-1	9.858429432E-1	9.875179291E0	9.928488346E0
7.218808870E-1	2.823530734E-1	9.954141974E-1	9.868000984E0	9.922097364E0
7.230769810E-1	2.703889608E-1	9.978070259E-1	9.868000984E0	9.922004459E0
7.242730740E-1	2.560320199E-1	9.882357717E-1	9.877572060E0	9.930185906E0
7.254691680E-1	2.440679073E-1	1.000199914E0	9.870393753E0	9.923942858E0
7.266652620E-1	2.321037948E-1	1.012163997E0	9.858428955E0	9.912969766E0
7.278613560E-1	2.273181528E-1	1.007378340E0	9.856036186E0	9.909991623E0
7.290574490E-1	2.225325108E-1	1.009771109E0	9.851250648E0	9.905367118E0
7.302535430E-1	2.201396823E-1	1.012163997E0	9.844072342E0	9.898418950E0
7.314496370E-1	2.225325108E-1	1.014556766E0	9.844072342E0	9.898717413E0
7.326457310E-1	2.177468538E-1	1.024128079E0	9.841679573E0	9.897217227E0
7.338418240E-1	2.153540403E-1	1.026520967E0	9.834501266E0	9.890274911E0
7.350379180E-1	2.081755698E-1	1.026520967E0	9.817750931E0	9.873465233E0
7.362340120E-1	2.033899277E-1	1.026520967E0	9.801001549E0	9.856710614E0
7.374301060E-1	2.225325108E-1	1.026520967E0	9.798608780E0	9.854745052E0
7.386261990E-1	2.297109663E-1	1.021735311E0	9.805787086E0	9.861550109E0
7.398222930E-1	2.177468538E-1	1.021735311E0	9.808179855E0	9.863657983E0
7.410183870E-1	1.986042857E-1	1.038485050E0	9.798608780E0	9.855487247E0
7.422144810E-1	1.842473447E-1	1.045663476E0	9.791430473E0	9.848830890E0
7.434105740E-1	1.866401732E-1	1.036092162E0	9.786644936E0	9.843106248E0
7.446066680E-1	1.866401732E-1	1.019342422E0	9.777072906E0	9.831838493E0
7.458027620E-1	1.818545163E-1	1.004985452E0	9.767501831E0	9.820751440E0
7.469988560E-1	1.746760458E-1	9.978070259E-1	9.750752449E0	9.803229259E0
7.481949490E-1	1.770688742E-1	1.012163997E0	9.738788605E0	9.792846003E0
7.493910430E-1	1.914258152E-1	1.024128079E0	9.736394882E0	9.791979752E0
7.505871370E-1	1.962114573E-1	1.026520967E0	9.729216576E0	9.785187755E0
7.517832310E-1	1.986042857E-1	1.031306505E0	9.719645500E0	9.776223474E0
7.529793240E-1	2.033899277E-1	1.043270707E0	9.712467194E0	9.770455476E0
7.541754180E-1	1.986042857E-1	1.064806104E0	9.712467194E0	9.772680016E0
7.553715120E-1	1.962114573E-1	1.071984529E0	9.705288887E0	9.766282924E0
7.565676060E-1	1.962114573E-1	1.062413216E0	9.695717812E0	9.755724712E0
7.577636990E-1	1.962114573E-1	1.055234790E0	9.695717812E0	9.754945581E0
7.589597930E-1	2.033899277E-1	1.060020447E0	9.702896118E0	9.762745715E0
7.601558870E-1	2.177468538E-1	1.074377418E0	9.710074425E0	9.771757563E0
7.613519810E-1	2.249253243E-1	1.081555843E0	9.722038269E0	9.784599253E0
7.625480740E-1	2.249253243E-1	1.088734269E0	9.738788605E0	9.802037400E0
7.637441680E-1	2.249253243E-1	1.091127157E0	9.757930756E0	9.821321831E0
7.649402620E-1	2.297109663E-1	1.091127157E0	9.772287369E0	9.835696519E0
7.661363560E-1	2.321037948E-1	1.103091240E0	9.789037704E0	9.853727297E0
7.673324490E-1	2.297109663E-1	1.107876897E0	9.810572624E0	9.875600922E0
7.685285430E-1	2.344966233E-1	1.110269666E0	9.829715729E0	9.894998671E0
7.697246370E-1	2.440679073E-1	1.107876897E0	9.839286804E0	9.904469959E0
7.709207310E-1	2.488535494E-1	1.103091240E0	9.841679573E0	9.906432011E0
7.721168240E-1	2.488535494E-1	1.105484009E0	9.841679573E0	9.906698734E0
7.733129180E-1	2.488535494E-1	1.122233868E0	9.848857880E0	9.915711698E0
7.745090120E-1	2.512463629E-1	1.124626637E0	9.856036186E0	9.923172835E0
7.757051060E-1	2.656033039E-1	1.115055323E0	9.858428955E0	9.924843321E0
7.769011990E-1	2.703889608E-1	1.115055323E0	9.860821724E0	9.927349275E0
7.780972930E-1	2.632105052E-1	1.115055323E0	9.860821724E0	9.927156351E0
7.792933870E-1	2.679961324E-1	1.115055323E0	9.858428955E0	9.924907645E0
7.804894810E-1	2.823530734E-1	1.112662554E0	9.853643417E0	9.920283757E0
7.816855740E-1	2.919243574E-1	1.107876897E0	9.841679573E0	9.908141494E0
7.828816680E-1	3.014956415E-1	1.100698471E0	9.832108498E0	9.898120744E0
7.840777620E-1	3.038884699E-1	1.093519926E0	9.824930191E0	9.890267301E0
7.852738560E-1	2.967100143E-1	1.081555843E0	9.817750931E0	9.881600741E0
7.864699490E-1	2.967100143E-1	1.071984529E0	9.817750931E0	9.880557727E0
7.876660430E-1	2.991028428E-1	1.069591761E0	9.820143700E0	9.882748167E0
7.888621370E-1	3.062812984E-1	1.076770186E0	9.815358162E0	9.878992768E0
7.900582310E-1	3.134597540E-1	1.071984529E0	9.808179855E0	9.871565222E0
7.912543240E-1	3.230310678E-1	1.050449133E0	9.796216011E0	9.857669125E0
7.924504180E-1	3.373879790E-1	1.036092162E0	9.786644936E0	9.847118193E0
7.936465120E-1	3.326023519E-1	1.031306505E0	9.793823242E0	9.853587729E0
7.948426060E-1	3.134597540E-1	1.031306505E0	9.796216011E0	9.855338566E0
7.960386990E-1	2.943171859E-1	1.016949654E0	9.779465675E0	9.836602976E0
7.972347930E-1	2.919243574E-1	1.000199914E0	9.767501831E0	9.822917678E0
7.984308870E-1	2.943171859E-1	9.978070259E-1	9.757930756E0	9.813228526E0
7.996269810E-1	2.895315289E-1	1.002592683E0	9.743574142E0	9.799298835E0
8.008230740E-1	2.799602449E-1	1.007378340E0	9.736394882E0	9.792373265E0
8.020191680E-1	2.847459018E-1	1.012163997E0	9.731609344E0	9.788246861E0
8.032152620E-1	2.871387303E-1	1.021735311E0	9.719645500E0	9.777417877E0
8.044113560E-1	2.679961324E-1	1.016949654E0	9.710074425E0	9.766859979E0
8.056074490E-1	2.632105052E-1	1.000199914E0	9.700503349E0	9.755482811E0
8.068035430E-1	2.560320199E-1	9.834501147E-1	9.693324089E0	9.746448503E0
8.079996370E-1	2.440679073E-1	9.762716293E-1	9.690931320E0	9.743039838E0
8.091957310E-1	2.392822653E-1	9.762716293E-1	9.695717812E0	9.747682093E0
8.103917720E-1	2.392822653E-1	9.762716293E-1	9.698110580E0	9.750062109E0
8.115878660E-1	2.392822653E-1	9.738788009E-1	9.700503349E0	9.752202887E0
8.127840120E-1	2.392822653E-1	9.619147182E-1	9.710074425E0	9.760536935E0
8.139800540E-1	2.297109663E-1	9.475577474E-1	9.722038269E0	9.770806564E0
8.151761470E-1	2.225325108E-1	9.451649189E-1	9.726823807E0	9.775170526E0
8.163722410E-1	2.177468538E-1	9.427721500E-1	9.722038269E0	9.770069658E0
8.175683870E-1	2.249253243E-1	9.403793216E-1	9.722038269E0	9.770001677E0
8.187644290E-1	2.273181528E-1	9.451649189E-1	9.719645500E0	9.768137945E0
8.199605220E-1	2.249253243E-1	9.571290612E-1	9.722038269E0	9.771628091E0
8.211566680E-1	2.249253243E-1	9.643075466E-1	9.729216576E0	9.779475222E0
8.223527100E-1	2.273181528E-1	9.738788009E-1	9.736394882E0	9.787619668E0
8.235488040E-1	2.368894368E-1	9.762716293E-1	9.741181374E0	9.792846239E0
8.247448970E-1	2.416750938E-1	9.738788009E-1	9.745966911E0	9.797485280E0
8.259409910E-1	2.488535494E-1	9.738788009E-1	9.762716293E0	9.814326132E0
8.271370850E-1	2.536391914E-1	9.738788009E-1	9.777072906E0	9.828729693E0
8.283331790E-1	2.536391914E-1	9.571290612E-1	9.779465675E0	9.829464776E0
8.295292720E-1	2.679961324E-1	9.451649189E-1	9.781859398E0	9.831069725E0
8.307253660E-1	2.847459018E-1	9.451649189E-1	9.798608780E0	9.848205470E0
8.319214600E-1	2.895315289E-1	9.475577474E-1	9.808179855E0	9.858097497E0
8.331175540E-1	3.014956415E-1	9.475577474E-1	9.815358162E0	9.865597861E0
8.343136470E-1	3.134597540E-1	9.427721500E-1	9.827322960E0	9.877416307E0
8.355097410E-1	3.302095234E-1	9.475577474E-1	9.832108498E0	9.883180739E0
8.367058350E-1	3.445664644E-1	9.595218897E-1	9.841679573E0	9.894345108E0
8.379019290E-1	3.541377485E-1	9.643075466E-1	9.853643417E0	9.907047551E0
8.390980220E-1	3.589234054E-1	9.714859724E-1	9.853643417E0	9.907921053E0
8.402941160E-1	3.469592929E-1	9.858429432E-1	9.851250648E0	9.906533521E0
8.414902100E-1	3.613162339E-1	9.858429432E-1	9.853643417E0	9.909426034E0
8.426863040E-1	3.852444589E-1	9.810572863E-1	9.853643417E0	9.909852435E0
8.438823970E-1	3.804588020E-1	9.882357717E-1	9.848857880E0	9.905622665E0
8.450784910E-1	3.708875179E-1	9.978070259E-1	9.841679573E0	9.899082444E0
8.462745850E-1	3.589234054E-1	9.978070259E-1	9.839286804E0	9.896262410E0
8.474706790E-1	3.469592929E-1	9.978070259E-1	9.839286804E0	9.895835711E0
8.486667720E-1	3.565305769E-1	1.007378340E0	9.829715729E0	9.887630479E0
8.498628660E-1	3.637090325E-1	1.002592683E0	9.824930191E0	9.882647905E0
8.510589600E-1	3.637090325E-1	9.906286001E-1	9.834501266E0	9.890957711E0
8.522550540E-1	3.613162339E-1	9.930213690E-1	9.829715729E0	9.886351813E0
8.534511470E-1	3.541377485E-1	1.000199914E0	9.820143700E0	9.877299008E0
8.546472410E-1	3.541377485E-1	1.014556766E0	9.812965393E0	9.871627464E0
8.558433350E-1	3.589234054E-1	1.031306505E0	9.817750931E0	9.878291981E0
8.570394290E-1	3.589234054E-1	1.033699393E0	9.827322960E0	9.888055269E0
8.582355220E-1	3.469592929E-1	1.026520967E0	9.834501266E0	9.894015424E0
8.594316160E-1	3.445664644E-1	1.031306505E0	9.834501266E0	9.894429459E0
8.606277100E-1	3.397808075E-1	1.045663476E0	9.836894035E0	9.898148684E0
8.618238040E-1	3.302095234E-1	1.050449133E0	9.834501266E0	9.895953560E0
8.630198970E-1	3.254238665E-1	1.048056364E0	9.827322960E0	9.888407323E0
8.642159910E-1	3.182454109E-1	1.050449133E0	9.817750931E0	9.878914761E0
8.654120850E-1	3.182454109E-1	1.060020447E0	9.810572624E0	9.872803994E0
8.666081790E-1	3.206382394E-1	1.062413216E0	9.810572624E0	9.873138606E0
8.678042720E-1	3.086741269E-1	1.062413216E0	9.803394318E0	9.865624243E0
8.690003660E-1	2.943171859E-1	1.067198873E0	9.796216011E0	9.858569073E0
8.701964600E-1	2.823530734E-1	1.076770186E0	9.791430473E0	9.854504960E0
8.713925540E-1	2.656033039E-1	1.088734269E0	9.793823242E0	9.857731033E0
8.725886470E-1	2.560320199E-1	1.091127157E0	9.798608780E0	9.862496889E0
8.737847410E-1	2.464607358E-1	1.086341500E0	9.796216011E0	9.859347285E0
8.749808350E-1	2.344966233E-1	1.093519926E0	9.793823242E0	9.857471694E0
8.761769290E-1	2.321037948E-1	1.095912814E0	9.796216011E0	9.860058073E0
8.773730220E-1	2.249253243E-1	1.086341500E0	9.808179855E0	9.870720406E0
8.785691160E-1	2.105683982E-1	1.095912814E0	9.822537422E0	9.885727356E0
8.797652100E-1	2.057827413E-1	1.100698471E0	9.836894035E0	9.900422613E0
8.809613040E-1	2.057827413E-1	1.095912814E0	9.858428955E0	9.921289881E0
8.821573970E-1	1.962114573E-1	1.103091240E0	9.877572060E0	9.940912383E0
8.833534910E-1	1.770688742E-1	1.107876897E0	9.891928673E0	9.955350193E0
8.845495850E-1	1.531406492E-1	1.112662554E0	9.903892517E0	9.967374630E0
8.857456790E-1	1.363908947E-1	1.117448211E0	9.918250084E0	9.981932564E0
8.869417720E-1	1.196411327E-1	1.119840980E0	9.930213928E0	9.993873447E0
8.881378660E-1	1.028913707E-1	1.124626637E0	9.934999466E0	9.998979253E0
8.893339600E-1	8.374879509E-2	1.124626637E0	9.932606697E0	9.996423097E0
8.905300540E-1	9.092725813E-2	1.119840980E0	9.923035622E0	9.986438181E0
8.917261470E-1	1.052841991E-1	1.112662554E0	9.915857315E0	9.978643646E0
8.929222410E-1	9.332008660E-2	1.107876897E0	9.911071777E0	9.973236367E0
8.941183350E-1	7.896314561E-2	1.112662554E0	9.901499748E0	9.964133199E0
8.953144290E-1	8.614161611E-2	1.107876897E0	9.891928673E0	9.954148103E0
8.965105220E-1	9.810572863E-2	1.103091240E0	9.882357597E0	9.944215741E0
8.977066160E-1	1.100698411E-1	1.105484009E0	9.875179291E0	9.937473335E0
8.989027100E-1	1.268195957E-1	1.115055323E0	9.865608215E0	9.929232450E0
9.000988040E-1	1.483550072E-1	1.117448211E0	9.856036186E0	9.920289765E0
9.012948970E-1	1.722832322E-1	1.110269666E0	9.846465111E0	9.910361014E0
9.024909910E-1	1.818545163E-1	1.107876897E0	9.827322960E0	9.891245566E0
9.036870850E-1	1.842473447E-1	1.105484009E0	9.812965393E0	9.876757149E0
9.048831790E-1	1.938186288E-1	1.112662554E0	9.805787086E0	9.870615179E0
9.060792720E-1	2.009970993E-1	1.115055323E0	9.796216011E0	9.861520995E0
9.072753660E-1	2.129612118E-1	1.103091240E0	9.791430473E0	9.855672147E0
9.084714080E-1	2.368894368E-1	1.098305583E0	9.791430473E0	9.855683765E0
9.096675540E-1	2.536391914E-1	1.105484009E0	9.789037704E0	9.854526215E0
9.108636470E-1	2.512463629E-1	1.103091240E0	9.777072906E0	9.842311194E0
9.120596890E-1	2.536391914E-1	1.088734269E0	9.765109062E0	9.828887533E0
9.132557830E-1	2.703889608E-1	1.076770186E0	9.750752449E0	9.813751451E0
9.144518770E-1	2.823530734E-1	1.064806104E0	9.745966911E0	9.808027647E0
9.156479700E-1	2.799602449E-1	1.060020447E0	9.755537987E0	9.816951793E0
9.168440640E-1	2.703889608E-1	1.055234790E0	9.765109062E0	9.825679908E0
9.180401580E-1	2.679961324E-1	1.043270707E0	9.762716293E0	9.821958314E0
9.192362520E-1	2.799602449E-1	1.028913736E0	9.757930756E0	9.816020265E0
9.204323450E-1	2.895315289E-1	1.016949654E0	9.753145218E0	9.810293408E0
9.216284390E-1	3.014956415E-1	1.002592683E0	9.755537987E0	9.811555082E0
9.228245330E-1	3.158525825E-1	9.978070259E-1	9.753145218E0	9.809139787E0
9.240206270E-1	3.254238665E-1	9.978070259E-1	9.736394882E0	9.792798622E0
9.252167200E-1	3.278166950E-1	9.954141974E-1	9.719645500E0	9.775981887E0
9.264128140E-1	3.206382394E-1	9.906286001E-1	9.705288887E0	9.760982854E0
9.276089080E-1	3.230310678E-1	9.858429432E-1	9.698110580E0	9.753439609E0
9.288050020E-1	3.397808075E-1	9.834501147E-1	9.700503349E0	9.756146286E0
9.300010950E-1	3.565305769E-1	9.786644578E-1	9.700503349E0	9.756262778E0
9.311971890E-1	3.732803464E-1	9.690931439E-1	9.688538551E0	9.744037100E0
9.323932830E-1	3.804588020E-1	9.547362328E-1	9.678967476E0	9.733379761E0
9.335893770E-1	3.732803464E-1	9.499505758E-1	9.674181938E0	9.727874407E0
9.347854700E-1	3.828516304E-1	9.571290612E-1	9.671789169E0	9.726570678E0
9.359815640E-1	3.900300860E-1	9.667003751E-1	9.676574707E0	9.732560359E0
9.371776580E-1	3.756731451E-1	9.738788009E-1	9.676574707E0	9.732711251E0
9.383737520E-1	3.589234054E-1	9.810572863E-1	9.676574707E0	9.732800084E0
9.395698450E-1	3.445664644E-1	9.834501147E-1	9.676574707E0	9.732522707E0
9.407659390E-1	3.373879790E-1	9.738788009E-1	9.674181938E0	9.728929373E0
9.419620330E-1	3.349951804E-1	9.667003751E-1	9.678967476E0	9.732889745E0
9.431581270E-1	3.182454109E-1	9.619147182E-1	9.686145782E0	9.738992771E0
9.443542200E-1	3.038884699E-1	9.571290612E-1	9.681360245E0	9.733302648E0
9.455503140E-1	2.895315289E-1	9.547362328E-1	9.676574707E0	9.727869646E0
9.467464080E-1	2.703889608E-1	9.571290612E-1	9.674181938E0	9.725173644E0
9.479425020E-1	2.679961324E-1	9.643075466E-1	9.669396400E0	9.721056410E0
9.491385950E-1	2.584248483E-1	9.571290612E-1	9.674181938E0	9.724848359E0
9.503346890E-1	2.392822653E-1	9.499505758E-1	9.674181938E0	9.723654574E0
9.515307830E-1	2.392822653E-1	9.547362328E-1	9.674181938E0	9.724123274E0
9.527268770E-1	2.512463629E-1	9.619147182E-1	9.688538551E0	9.739413941E0
9.539229700E-1	2.488535494E-1	9.667003751E-1	9.702896118E0	9.754108405E0
9.551190640E-1	2.273181528E-1	9.667003751E-1	9.698110580E0	9.748822082E0
9.563151580E-1	2.057827413E-1	9.714859724E-1	9.693324089E0	9.744057852E0
9.575112520E-1	1.914258152E-1	9.834501147E-1	9.698110580E0	9.749726499E0
9.587073450E-1	1.914258152E-1	9.882357717E-1	9.690931320E0	9.743069518E0
9.599034390E-1	1.938186288E-1	9.978070259E-1	9.686145782E0	9.739332864E0
9.610995330E-1	1.890329868E-1	1.002592683E0	9.683753014E0	9.737350666E0
9.622956270E-1	1.842473447E-1	9.978070259E-1	9.686145782E0	9.739147091E0
9.634917200E-1	1.818545163E-1	1.007378340E0	9.702896118E0	9.756745116E0
9.646878140E-1	1.818545163E-1	1.012163997E0	9.714859962E0	9.769137685E0
9.658839080E-1	1.866401732E-1	1.002592683E0	9.719645500E0	9.773000322E0
9.670800020E-1	1.938186288E-1	1.009771109E0	9.719645500E0	9.773879066E0
9.682760950E-1	1.794617027E-1	1.024128079E0	9.729216576E0	9.784615475E0
9.694721890E-1	1.698904037E-1	1.021735311E0	9.750752449E0	9.805609574E0
9.706682830E-1	1.770688742E-1	1.019342422E0	9.745966911E0	9.800728718E0
9.718643770E-1	1.818545163E-1	1.014556766E0	9.729216576E0	9.783662488E0
9.730604700E-1	1.842473447E-1	1.009771109E0	9.731609344E0	9.785591715E0
9.742565640E-1	1.866401732E-1	1.016949654E0	9.729216576E0	9.784001039E0
9.754526580E-1	1.818545163E-1	1.024128079E0	9.724431038E0	9.779901247E0
9.766487520E-1	1.794617027E-1	1.014556766E0	9.734002113E0	9.788377244E0
9.778448450E-1	1.914258152E-1	1.007378340E0	9.748359680E0	9.802141165E0
9.790409390E-1	2.009970993E-1	1.000199914E0	9.753145218E0	9.806357190E0
9.802370330E-1	2.177468538E-1	9.978070259E-1	9.760323524E0	9.813610337E0
9.814331270E-1	2.416750938E-1	9.978070259E-1	9.774680138E0	9.828448377E0
9.826292200E-1	2.584248483E-1	9.930213690E-1	9.798608780E0	9.852188024E0
9.838253140E-1	2.703889608E-1	9.834501147E-1	9.810572624E0	9.863448663E0
9.850214080E-1	2.775674164E-1	9.738788009E-1	9.815358162E0	9.867458611E0
9.862175020E-1	2.727817893E-1	9.762716293E-1	9.822537422E0	9.874702912E0
9.874135950E-1	2.632105052E-1	9.882357717E-1	9.829715729E0	9.882772942E0
9.886096890E-1	2.656033039E-1	1.000199914E0	9.841679573E0	9.895938652E0
9.898057830E-1	2.679961324E-1	1.000199914E0	9.848857880E0	9.903142094E0
9.910018240E-1	2.751746178E-1	1.007378340E0	9.860821724E0	9.915963759E0
9.921979700E-1	2.799602449E-1	1.012163997E0	9.856036186E0	9.911826421E0
9.933940120E-1	2.799602449E-1	1.014556766E0	9.834501266E0	9.890658134E0
9.945901060E-1	2.775674164E-1	1.031306505E0	9.817750931E0	9.875670616E0
9.957861990E-1	2.775674164E-1	1.045663476E0	9.815358162E0	9.874801852E0
9.969822930E-1	2.703889608E-1	1.045663476E0	9.812965393E0	9.872224273E0
9.981783870E-1	2.536391914E-1	1.040877819E0	9.803394318E0	9.861759459E0
9.993744810E-1	2.464607358E-1	1.038485050E0	9.791430473E0	9.849431700E0
1.000570574E0	2.464607358E-1	1.036092162E0	9.784252167E0	9.842043504E0
1.001766668E0	2.536391914E-1	1.028913736E0	9.779465675E0	9.836714147E0
1.002962762E0	2.584248483E-1	1.028913736E0	9.772287369E0	9.829702300E0
1.004158856E0	2.536391914E-1	1.028913736E0	9.753145218E0	9.810547281E0
1.005354949E0	2.632105052E-1	1.026520967E0	9.734002113E0	9.791517871E0
1.006551043E0	2.608176768E-1	1.019342422E0	9.714859962E0	9.771672780E0
1.007747137E0	2.560320199E-1	1.012163997E0	9.705288887E0	9.761283765E0
1.008943231E0	2.656033039E-1	1.016949654E0	9.700503349E0	9.757279177E0
1.010139324E0	2.751746178E-1	1.019342422E0	9.690931320E0	9.748278304E0
1.011335418E0	2.895315289E-1	1.012163997E0	9.693324089E0	9.750324936E0
1.012531512E0	3.062812984E-1	1.016949654E0	9.693324089E0	9.751334613E0
1.013727606E0	3.062812984E-1	1.026520967E0	9.690931320E0	9.749959148E0
1.014923699E0	3.038884699E-1	1.026520967E0	9.693324089E0	9.752262578E0
1.016119793E0	3.014956415E-1	1.028913736E0	9.690931320E0	9.750062202E0
1.017315887E0	2.943171859E-1	1.026520967E0	9.690931320E0	9.749590646E0
1.018511981E0	2.943171859E-1	1.016949654E0	9.690931320E0	9.748587542E0
1.019708074E0	2.871387303E-1	1.009771109E0	9.695717812E0	9.752385873E0
1.020904168E0	2.775674164E-1	1.002592683E0	9.702896118E0	9.758505461E0
1.022100262E0	2.775674164E-1	1.000199914E0	9.712467194E0	9.767776744E0
1.023296356E0	2.823530734E-1	9.978070259E-1	9.714859962E0	9.770048424E0
1.024492449E0	2.823530734E-1	9.978070259E-1	9.705288887E0	9.760531466E0
1.025688543E0	2.727817893E-1	9.978070259E-1	9.698110580E0	9.753121428E0
1.026884637E0	2.679961324E-1	9.858429432E-1	9.693324089E0	9.747011857E0
1.028080731E0	2.751746178E-1	9.810572863E-1	9.681360245E0	9.734830798E0
1.029276824E0	2.751746178E-1	9.858429432E-1	9.664610863E0	9.718657855E0
1.030472918E0	2.584248483E-1	9.930213690E-1	9.655039787E0	9.709411318E0
1.031669012E0	2.464607358E-1	9.906286001E-1	9.652647018E0	9.706476311E0
1.032865106E0	2.536391914E-1	9.882357717E-1	9.652647018E0	9.706417323E0
1.034061199E0	2.560320199E-1	1.000199914E0	9.652647018E0	9.707705534E0
1.035257293E0	2.512463629E-1	1.004985452E0	9.659825325E0	9.715212082E0
1.036453387E0	2.368894368E-1	9.978070259E-1	9.659825325E0	9.714111425E0
1.037649481E0	2.321037948E-1	1.000199914E0	9.655039787E0	9.709483268E0
1.038845574E0	2.488535494E-1	9.978070259E-1	9.662218094E0	9.716789873E0
1.040041668E0	2.584248483E-1	9.858429432E-1	9.671789169E0	9.725336778E0
1.041237762E0	2.440679073E-1	9.738788009E-1	9.683753014E0	9.735660301E0
1.042433856E0	2.321037948E-1	9.643075466E-1	9.707681656E0	9.758219323E0
1.043629949E0	2.249253243E-1	9.547362328E-1	9.729216576E0	9.778536079E0
1.044826043E0	2.177468538E-1	9.571290612E-1	9.736394882E0	9.785749590E0
1.046022137E0	2.225325108E-1	9.667003751E-1	9.741181374E0	9.791559880E0
1.047218231E0	2.273181528E-1	9.714859724E-1	9.755537987E0	9.806425442E0
1.048414324E0	2.297109663E-1	9.786644578E-1	9.769894600E0	9.821476047E0
1.049610418E0	2.416750938E-1	9.786644578E-1	9.777072906E0	9.828903580E0
1.050806512E0	2.392822653E-1	9.762716293E-1	9.786644936E0	9.838128958E0
1.052002606E0	2.344966233E-1	9.810572863E-1	9.798608780E0	9.850390657E0
1.053198699E0	2.368894368E-1	9.906286001E-1	9.805787086E0	9.858545634E0
1.054394793E0	2.440679073E-1	1.002592683E0	9.812965393E0	9.867069020E0
1.055590887E0	2.536391914E-1	1.009771109E0	9.817750931E0	9.872801217E0
1.056786981E0	2.464607358E-1	1.002592683E0	9.820143700E0	9.874267429E0
1.057983074E0	2.416750938E-1	9.930213690E-1	9.827322960E0	9.880322609E0
1.059179168E0	2.464607358E-1	1.000199914E0	9.839286804E0	9.893063609E0
1.060375262E0	2.488535494E-1	1.009771109E0	9.856036186E0	9.910752498E0
1.061571356E0	2.464607358E-1	1.009771109E0	9.868000984E0	9.922591597E0
1.062767449E0	2.488535494E-1	1.007378340E0	9.882357597E0	9.936686112E0
1.063963543E0	2.512463629E-1	1.000199914E0	9.899106979E0	9.952680222E0
1.065159637E0	2.368894368E-1	1.000199914E0	9.918250084E0	9.971369074E0
1.066355731E0	2.273181528E-1	1.009771109E0	9.937392235E0	9.991149867E0
1.067551824E0	2.297109663E-1	1.019342422E0	9.946963310E0	1.000169512E1
1.068747918E0	2.249253243E-1	1.033699393E0	9.958928108E0	1.001495756E1
1.069943960E0	2.153540403E-1	1.048056364E0	9.958928108E0	1.001623924E1
1.071140054E0	2.225325108E-1	1.062413216E0	9.954142570E0	1.001315120E1
1.072336147E0	2.368894368E-1	1.064806104E0	9.956535339E0	1.001611325E1
1.073532241E0	2.392822653E-1	1.057627559E0	9.949356079E0	1.000827250E1
1.074728335E0	2.344966233E-1	1.060020447E0	9.934999466E0	9.994140603E0
1.075924429E0	2.297109663E-1	1.050449133E0	9.915857315E0	9.973988009E0
1.077120522E0	2.297109663E-1	1.040877819E0	9.903892517E0	9.961088332E0
1.078316616E0	2.368894368E-1	1.057627559E0	9.887143135E0	9.946370797E0
1.079512710E0	2.512463629E-1	1.076770186E0	9.860821724E0	9.922618800E0
1.080708804E0	2.608176768E-1	1.074377418E0	9.834501266E0	9.896450265E0
1.081904897E0	2.584248483E-1	1.064806104E0	9.820143700E0	9.881083833E0
1.083100991E0	2.536391914E-1	1.055234790E0	9.803394318E0	9.863285125E0
1.084297085E0	2.608176768E-1	1.043270707E0	9.781859398E0	9.840793307E0
1.085493179E0	2.679961324E-1	1.048056364E0	9.772287369E0	9.831980700E0
1.086689272E0	2.656033039E-1	1.060020447E0	9.755537987E0	9.816552851E0
1.087885366E0	2.560320199E-1	1.060020447E0	9.745966911E0	9.806786771E0
1.089081460E0	2.584248483E-1	1.064806104E0	9.741181374E0	9.802612407E0
1.090277554E0	2.608176768E-1	1.071984529E0	9.738788605E0	9.801080562E0
1.091473647E0	2.560320199E-1	1.069591761E0	9.734002113E0	9.795936712E0
1.092669741E0	2.560320199E-1	1.057627559E0	9.714859962E0	9.775614177E0
1.093865835E0	2.751746178E-1	1.062413216E0	9.702896118E0	9.764765025E0
1.095061929E0	2.967100143E-1	1.071984529E0	9.700503349E0	9.764064363E0
1.096258022E0	2.967100143E-1	1.076770186E0	9.700503349E0	9.764590933E0
1.097454116E0	2.895315289E-1	1.086341500E0	9.690931320E0	9.755927235E0
1.098650210E0	2.823530734E-1	1.095912814E0	9.678967476E0	9.744904287E0
1.099846304E0	2.799602449E-1	1.095912814E0	9.669396400E0	9.735328930E0
1.101042397E0	2.943171859E-1	1.083948612E0	9.659825325E0	9.724905784E0
1.102238491E0	3.062812984E-1	1.071984529E0	9.655039787E0	9.719195047E0
1.103434585E0	3.062812984E-1	1.064806104E0	9.659825325E0	9.723160267E0
1.104630679E0	3.110669553E-1	1.064806104E0	9.664610863E0	9.728066499E0
1.105826772E0	3.182454109E-1	1.060020447E0	9.664610863E0	9.727776037E0
1.107022866E0	3.254238665E-1	1.057627559E0	9.667003632E0	9.730130316E0
1.108218960E0	3.349951804E-1	1.057627559E0	9.674181938E0	9.737586662E0
1.109415054E0	3.397808075E-1	1.043270707E0	9.674181938E0	9.736203620E0
1.110611147E0	3.302095234E-1	1.031306505E0	9.669396400E0	9.729843688E0
1.111807241E0	3.182454109E-1	1.024128079E0	9.681360245E0	9.740577737E0
1.113003335E0	3.230310678E-1	1.019342422E0	9.693324089E0	9.752124894E0
1.114199429E0	3.397808075E-1	1.019342422E0	9.698110580E0	9.757451450E0
1.115395522E0	3.421736360E-1	1.012163997E0	9.705288887E0	9.763922938E0
1.116591616E0	3.421736360E-1	9.954141974E-1	9.719645500E0	9.776473846E0
1.117787710E0	3.469592929E-1	9.762716293E-1	9.734002113E0	9.788987904E0
1.118983804E0	3.421736360E-1	9.714859724E-1	9.748359680E0	9.802621295E0
1.120179897E0	3.493520916E-1	9.834501147E-1	9.757930756E0	9.813584138E0
1.121375991E0	3.469592929E-1	9.930213690E-1	9.772287369E0	9.828737081E0
1.122572085E0	3.326023519E-1	9.882357717E-1	9.793823242E0	9.849172958E0
1.123768179E0	3.230310678E-1	9.858429432E-1	9.803394318E0	9.858132456E0
1.124964272E0	3.158525825E-1	9.834501147E-1	9.805787086E0	9.860040434E0
1.126160366E0	3.086741269E-1	9.810572863E-1	9.817750931E0	9.871473368E0
1.127356460E0	2.991028428E-1	9.906286001E-1	9.834501266E0	9.888792782E0
1.128552554E0	2.919243574E-1	1.000199914E0	9.851250648E0	9.906198011E0
1.129748647E0	2.823530734E-1	1.002592683E0	9.860821724E0	9.915680532E0
1.130944741E0	2.727817893E-1	1.007378340E0	9.868000984E0	9.923037058E0
1.132140835E0	2.656033039E-1	1.012163997E0	9.868000984E0	9.923329305E0
1.133336929E0	2.584248483E-1	1.002592683E0	9.872786522E0	9.926927480E0
1.134533022E0	2.512463629E-1	9.978070259E-1	9.882357597E0	9.935780557E0
1.135729116E0	2.440679073E-1	9.978070259E-1	9.899106979E0	9.952261401E0
1.136925210E0	2.344966233E-1	9.954141974E-1	9.906285286E0	9.958931984E0
1.138121304E0	2.321037948E-1	9.954141974E-1	9.908679008E0	9.961257014E0
1.139317397E0	2.321037948E-1	1.000199914E0	9.918250084E0	9.971256529E0
1.140513439E0	2.201396823E-1	1.002592683E0	9.930213928E0	9.983125875E0
1.141709585E0	2.081755698E-1	9.930213690E-1	9.934999466E0	9.986673265E0
1.142905679E0	2.057827413E-1	9.810572863E-1	9.942177773E0	9.992583189E0
1.144101720E0	2.081755698E-1	9.882357717E-1	9.942177773E0	9.993340076E0
1.145297814E0	2.105683982E-1	9.954141974E-1	9.930213928E0	9.982201017E0
1.146493908E0	2.153540403E-1	9.954141974E-1	9.930213928E0	9.982303113E0
1.147690002E0	2.057827413E-1	9.858429432E-1	9.934999466E0	9.985912439E0
1.148886095E0	1.986042857E-1	9.786644578E-1	9.932606697E0	9.982680180E0
1.150082189E0	2.009970993E-1	9.858429432E-1	9.927821159E0	9.978673214E0
1.151278283E0	2.057827413E-1	9.930213690E-1	9.918250084E0	9.969961018E0
1.152474377E0	2.153540403E-1	9.954141974E-1	9.903892517E0	9.956119414E0
1.153670470E0	2.177468538E-1	1.002592683E0	9.889535904E0	9.942611638E0
1.154866564E0	2.129612118E-1	1.007378340E0	9.875179291E0	9.928712385E0
1.156062658E0	2.033899277E-1	1.004985452E0	9.848857880E0	9.902088909E0
1.157258752E0	2.081755698E-1	1.009771109E0	9.829715729E0	9.883637289E0
1.158454845E0	2.129612118E-1	1.016949654E0	9.820143700E0	9.874956271E0
1.159650939E0	2.105683982E-1	1.024128079E0	9.805787086E0	9.861370988E0
1.160847033E0	2.129612118E-1	1.045663476E0	9.786644936E0	9.844652542E0
1.162043127E0	2.129612118E-1	1.055234790E0	9.772287369E0	9.831402411E0
1.163239220E0	2.081755698E-1	1.057627559E0	9.767501831E0	9.826800351E0
1.164435314E0	2.057827413E-1	1.067198873E0	9.757930756E0	9.818272384E0
1.165631408E0	1.986042857E-1	1.069591761E0	9.753145218E0	9.813628882E0
1.166827502E0	2.081755698E-1	1.074377418E0	9.750752449E0	9.811972137E0
1.168023595E0	2.273181528E-1	1.079162955E0	9.750752449E0	9.812922070E0
1.169219689E0	2.321037948E-1	1.074377418E0	9.753145218E0	9.814886685E0
1.170415783E0	2.297109663E-1	1.083948612E0	9.748359680E0	9.811127773E0
1.171611877E0	2.368894368E-1	1.093519926E0	9.745966911E0	9.809983357E0
1.172807970E0	2.464607358E-1	1.095912814E0	9.743574142E0	9.808109138E0
1.174004064E0	2.464607358E-1	1.091127157E0	9.745966911E0	9.809952722E0
1.175200158E0	2.488535494E-1	1.079162955E0	9.745966911E0	9.808689607E0
1.176396252E0	2.560320199E-1	1.079162955E0	9.743574142E0	9.806496936E0
1.177592345E0	2.656033039E-1	1.088734269E0	9.748359680E0	9.812563573E0
1.178788439E0	2.632105052E-1	1.105484009E0	9.755537987E0	9.821501722E0
1.179984533E0	2.584248483E-1	1.122233868E0	9.767501831E0	9.835155529E0
1.181180627E0	2.608176768E-1	1.117448211E0	9.781859398E0	9.848933427E0
1.182376720E0	2.536391914E-1	1.110269666E0	9.803394318E0	9.869324785E0
1.183572814E0	2.440679073E-1	1.122233868E0	9.820143700E0	9.887072382E0
1.184768804E0	2.392822653E-1	1.131805062E0	9.827322960E0	9.895176363E0
1.185964793E0	2.321037948E-1	1.129412293E0	9.839286804E0	9.906614412E0
1.187161095E0	2.225325108E-1	1.119840980E0	9.839286804E0	9.905308140E0
1.188357189E0	2.153540403E-1	1.117448211E0	9.829715729E0	9.895371604E0
1.189553283E0	2.201396823E-1	1.119840980E0	9.832108498E0	9.898124207E0
1.190749377E0	2.249253243E-1	1.119840980E0	9.829715729E0	9.895855018E0
1.191945470E0	2.297109663E-1	1.131805062E0	9.817750931E0	9.885442993E0
1.193141564E0	2.392822653E-1	1.143769264E0	9.812965393E0	9.882294973E0
1.194337658E0	2.488535494E-1	1.138983607E0	9.805787086E0	9.874850487E0
1.195533752E0	2.751746178E-1	1.136590719E0	9.793823242E0	9.863393596E0
1.196729845E0	2.847459018E-1	1.141376376E0	9.791430473E0	9.861842169E0
1.197925939E0	2.751746178E-1	1.141376376E0	9.784252167E0	9.854443240E0
1.199122033E0	2.775674164E-1	1.131805062E0	9.769894600E0	9.839149702E0
1.200318127E0	2.871387303E-1	1.129412293E0	9.760323524E0	9.829645776E0
1.201514220E0	2.895315289E-1	1.119840980E0	9.745966911E0	9.814364134E0
1.202710314E0	2.895315289E-1	1.110269666E0	9.724431038E0	9.791888799E0
1.203906408E0	3.014956415E-1	1.112662554E0	9.705288887E0	9.773512673E0
1.205102502E0	3.086741269E-1	1.103091240E0	9.695717812E0	9.763146720E0
1.206298595E0	3.182454109E-1	1.083948612E0	9.688538551E0	9.754178797E0
1.207494637E0	3.349951804E-1	1.071984529E0	9.686145782E0	9.751040597E0
1.208690731E0	3.373879790E-1	1.057627559E0	9.686145782E0	9.749555211E0
1.209886824E0	3.254238665E-1	1.045663476E0	9.686145782E0	9.747857863E0
1.211082918E0	3.182454109E-1	1.028913736E0	9.676574707E0	9.736325882E0
1.212279012E0	3.230310678E-1	1.009771109E0	9.667003632E0	9.724965089E0
1.213475106E0	3.302095234E-1	1.002592683E0	9.669396400E0	9.726842096E0
1.214671199E0	3.373879790E-1	1.014556766E0	9.669396400E0	9.728328882E0
1.215867293E0	3.445664644E-1	1.024128079E0	9.667003632E0	9.727205333E0
1.217063387E0	3.469592929E-1	1.019342422E0	9.671789169E0	9.731543837E0
1.218259481E0	3.397808075E-1	1.009771109E0	9.669396400E0	9.727914239E0
1.219455574E0	3.278166950E-1	1.000199914E0	9.667003632E0	9.724136099E0
1.220651668E0	3.254238665E-1	9.954141974E-1	9.667003632E0	9.723564641E0
1.221847762E0	3.254238665E-1	9.858429432E-1	9.676574707E0	9.732105890E0
1.223043856E0	3.182454109E-1	9.762716293E-1	9.681360245E0	9.735662413E0
1.224239949E0	3.182454109E-1	9.762716293E-1	9.681360245E0	9.735662413E0
1.225436043E0	3.134597540E-1	9.786644578E-1	9.676574707E0	9.730988603E0
1.226632137E0	3.062812984E-1	9.906286001E-1	9.676574707E0	9.731970577E0
1.227828231E0	2.943171859E-1	1.004985452E0	9.678967476E0	9.735452212E0
1.229024324E0	2.799602449E-1	1.000199914E0	9.667003632E0	9.722640424E0
1.230220418E0	2.727817893E-1	9.978070259E-1	9.655039787E0	9.710294643E0
1.231416512E0	2.632105052E-1	9.978070259E-1	9.650253296E0	9.705271109E0
1.232612606E0	2.560320199E-1	9.930213690E-1	9.645467758E0	9.699829489E0
1.233808699E0	2.536391914E-1	9.954141974E-1	9.635896683E0	9.690494680E0
1.235004793E0	2.416750938E-1	1.002592683E0	9.626325607E0	9.681412275E0
1.236200887E0	2.321037948E-1	1.019342422E0	9.619147301E0	9.675790714E0
1.237396981E0	2.321037948E-1	1.024128079E0	9.616754532E0	9.673917419E0
1.238593074E0	2.297109663E-1	1.012163997E0	9.623932838E0	9.679737928E0
1.239789168E0	2.225325108E-1	1.002592683E0	9.633503914E0	9.688091167E0
1.240985262E0	2.153540403E-1	1.002592683E0	9.633503914E0	9.687928938E0
1.242181356E0	2.153540403E-1	9.978070259E-1	9.628718376E0	9.682675962E0
1.243377449E0	2.153540403E-1	9.906286001E-1	9.633503914E0	9.686698098E0
1.244573543E0	1.914258152E-1	9.906286001E-1	9.645467758E0	9.698094511E0
1.245769637E0	1.842473447E-1	9.954141974E-1	9.657432556E0	9.710345003E0
1.246965731E0	1.842473447E-1	9.954141974E-1	9.659825325E0	9.712724737E0
1.248161824E0	1.722832322E-1	1.000199914E0	9.667003632E0	9.720135832E0
1.249357918E0	1.627119333E-1	1.009771109E0	9.681360245E0	9.735237493E0
1.250554012E0	1.507478207E-1	1.019342422E0	9.688538551E0	9.743180340E0
1.251750106E0	1.411765367E-1	1.028913736E0	9.693324089E0	9.748801269E0
1.252946199E0	1.459621787E-1	1.045663476E0	9.700503349E0	9.757790851E0
1.254142293E0	1.411765367E-1	1.060020447E0	9.705288887E0	9.764026144E0
1.255338387E0	1.363908947E-1	1.069591761E0	9.710074425E0	9.769758152E0
1.256534481E0	1.387837082E-1	1.069591761E0	9.710074425E0	9.769791850E0
1.257730574E0	1.531406492E-1	1.074377418E0	9.712467194E0	9.772909387E0
1.258926668E0	1.603191197E-1	1.081555843E0	9.719645500E0	9.780949540E0
1.260122762E0	1.555334777E-1	1.088734269E0	9.726823807E0	9.788801476E0
1.261318804E0	1.555334777E-1	1.086341500E0	9.731609344E0	9.793291017E0
1.262514949E0	1.746760458E-1	1.086341500E0	9.738788605E0	9.800747577E0
1.263711043E0	1.914258152E-1	1.081555843E0	9.750752449E0	9.812419692E0
1.264907137E0	2.009970993E-1	1.062413216E0	9.762716293E0	9.822410656E0
1.266103179E0	2.225325108E-1	1.040877819E0	9.769894600E0	9.827705116E0
1.267299324E0	2.416750938E-1	1.028913736E0	9.781859398E0	9.838792792E0
1.268495366E0	2.416750938E-1	1.028913736E0	9.798608780E0	9.855445416E0
1.269691512E0	2.392822653E-1	1.031306505E0	9.820143700E0	9.877047706E0
1.270887554E0	2.488535494E-1	1.033699393E0	9.839286804E0	9.896566442E0
1.272083647E0	2.727817893E-1	1.026520967E0	9.846465111E0	9.903586743E0
1.273279741E0	2.943171859E-1	1.016949654E0	9.853643417E0	9.910353061E0
1.274475835E0	3.086741269E-1	1.012163997E0	9.872786522E0	9.929333783E0
1.275671929E0	3.158525825E-1	1.004985452E0	9.891928673E0	9.947864669E0
1.276868022E0	3.014956415E-1	1.012163997E0	9.906285286E0	9.962422584E0
1.278064116E0	2.847459018E-1	1.024128079E0	9.920642853E0	9.977428184E0
1.279260210E0	2.847459018E-1	1.014556766E0	9.923035622E0	9.978829671E0
1.280456304E0	2.919243574E-1	9.954141974E-1	9.918250084E0	9.972349472E0
1.281652397E0	2.943171859E-1	9.954141974E-1	9.913464546E0	9.967660274E0
1.282848491E0	2.847459018E-1	1.000199914E0	9.911071777E0	9.965481618E0
1.284044585E0	2.751746178E-1	9.978070259E-1	9.906285286E0	9.960212252E0
1.285240679E0	2.775674164E-1	1.004985452E0	9.894321442E0	9.949102282E0
1.286436772E0	2.799602449E-1	1.009771109E0	9.887143135E0	9.942515517E0
1.287632866E0	2.632105052E-1	1.004985452E0	9.868000984E0	9.922535913E0
1.288828960E0	2.632105052E-1	1.002592683E0	9.846465111E0	9.900876074E0
1.290025054E0	2.679961324E-1	9.930213690E-1	9.834501266E0	9.888140802E0
1.291221147E0	2.656033039E-1	9.858429432E-1	9.820143700E0	9.873077216E0
1.292417241E0	2.656033039E-1	9.930213690E-1	9.803394318E0	9.857138363E0
1.293613335E0	2.584248483E-1	9.978070259E-1	9.786644936E0	9.840773413E0
1.294809429E0	2.488535494E-1	9.978070259E-1	9.765109062E0	9.819109020E0
1.296005522E0	2.368894368E-1	1.000199914E0	9.745966911E0	9.800019771E0
1.297201616E0	2.177468538E-1	1.007378340E0	9.726823807E0	9.781274262E0
1.298397710E0	1.914258152E-1	1.002592683E0	9.717252731E0	9.770713207E0
1.299593804E0	1.770688742E-1	1.002592683E0	9.710074425E0	9.763303273E0
1.300789897E0	1.674975902E-1	1.004985452E0	9.688538551E0	9.741962352E0
1.301985991E0	1.746760458E-1	1.016949654E0	9.678967476E0	9.733812702E0
1.303182085E0	1.986042857E-1	1.026520967E0	9.671789169E0	9.728139323E0
1.304378179E0	2.129612118E-1	1.021735311E0	9.655039787E0	9.711286672E0
1.305574272E0	2.129612118E-1	1.019342422E0	9.643074989E0	9.699139483E0
1.306770366E0	2.033899277E-1	1.016949654E0	9.635896683E0	9.691545746E0
1.307966460E0	1.938186288E-1	1.021735311E0	9.633503914E0	9.689473998E0
1.309162554E0	1.962114573E-1	1.033699393E0	9.628718376E0	9.686033808E0
1.310358647E0	2.033899277E-1	1.040877819E0	9.626325607E0	9.684572205E0
1.311554741E0	2.081755698E-1	1.045663476E0	9.633503914E0	9.692324119E0
1.312750835E0	2.057827413E-1	1.045663476E0	9.635896683E0	9.694651284E0
1.313946929E0	2.057827413E-1	1.048056364E0	9.647860527E0	9.706800782E0
1.315143022E0	2.081755698E-1	1.050449133E0	9.664610863E0	9.723758717E0
1.316339116E0	2.105683982E-1	1.052842021E0	9.676574707E0	9.735959811E0
1.317535210E0	2.129612118E-1	1.052842021E0	9.695717812E0	9.755038323E0
1.318731304E0	2.201396823E-1	1.057627559E0	9.707681656E0	9.767605677E0
1.319927397E0	2.321037948E-1	1.064806104E0	9.714859962E0	9.775796044E0
1.321123491E0	2.368894368E-1	1.064806104E0	9.731609344E0	9.792555799E0
1.322319585E0	2.416750938E-1	1.055234790E0	9.745966911E0	9.805906299E0
1.323515679E0	2.512463629E-1	1.052842021E0	9.762716293E0	9.822536866E0
1.324711772E0	2.536391914E-1	1.043270707E0	9.784252167E0	9.842984155E0
1.325907814E0	2.440679073E-1	1.031306505E0	9.808179855E0	9.865270109E0
1.327103908E0	2.392822653E-1	1.036092162E0	9.829715729E0	9.887064998E0
1.328300002E0	2.440679073E-1	1.038485050E0	9.848857880E0	9.906463641E0
1.329496095E0	2.464607358E-1	1.040877819E0	9.875179291E0	9.932941938E0
1.330692189E0	2.488535494E-1	1.040877819E0	9.908679008E0	9.966306960E0
1.331888283E0	2.440679073E-1	1.036092162E0	9.927821159E0	9.984722785E0
1.333084377E0	2.321037948E-1	1.038485050E0	9.944570541E0	1.000134024E1
1.334280470E0	2.225325108E-1	1.038485050E0	9.963713646E0	1.002015776E1
1.335476564E0	2.273181528E-1	1.052842021E0	9.982855797E0	1.004079478E1
1.336672658E0	2.273181528E-1	1.071984529E0	9.997213364E0	1.005709200E1
1.337868752E0	2.273181528E-1	1.074377418E0	1.001156998E1	1.007161823E1
1.339064845E0	2.249253243E-1	1.071984529E0	1.002592659E1	1.008558110E1
1.340260939E0	2.177468538E-1	1.076770186E0	1.003071213E1	1.009069044E1
1.341457033E0	2.201396823E-1	1.081555843E0	1.003549862E1	1.009601194E1
1.342653127E0	2.129612118E-1	1.083948612E0	1.003789139E1	1.009849299E1
1.343849220E0	1.962114573E-1	1.079162955E0	1.004985523E1	1.010953420E1
1.345045314E0	1.962114573E-1	1.074377418E0	1.007617569E1	1.013519128E1
1.346241408E0	2.057827413E-1	1.067198873E0	1.008574772E1	1.014413954E1
1.347437502E0	2.129612118E-1	1.060020447E0	1.008096218E1	1.013877677E1
1.348633595E0	2.057827413E-1	1.055234790E0	1.007617569E1	1.013336980E1
1.349829689E0	2.033899277E-1	1.055234790E0	1.006421185E1	1.012142520E1
1.351025783E0	2.033899277E-1	1.064806104E0	1.005464077E1	1.011291157E1
1.352221877E0	2.033899277E-1	1.060020447E0	1.005464077E1	1.011240880E1
1.353417970E0	2.009970993E-1	1.050449133E0	1.005703354E1	1.011374148E1
1.354614064E0	1.914258152E-1	1.043270707E0	1.005224800E1	1.010805360E1
1.355810158E0	1.770688742E-1	1.055234790E0	1.004028416E1	1.009713721E1
1.357006252E0	1.746760458E-1	1.055234790E0	1.001635551E1	1.007330184E1
1.358202345E0	1.866401732E-1	1.045663476E0	9.990034103E0	1.004634401E1
1.359398439E0	1.962114573E-1	1.048056364E0	9.978070259E0	1.003487953E1
1.360594533E0	1.986042857E-1	1.050449133E0	9.963713646E0	1.002090199E1
1.361790627E0	1.962114573E-1	1.040877819E0	9.942177773E0	9.998441100E0
1.362986720E0	1.938186288E-1	1.043270707E0	9.918250084E0	9.974851586E0
1.364182814E0	1.986042857E-1	1.052842021E0	9.899106979E0	9.956919151E0
1.365378908E0	2.009970993E-1	1.055234790E0	9.872786522E0	9.931054023E0
1.366575002E0	2.033899277E-1	1.048056364E0	9.846465111E0	9.904174109E0
1.367771095E0	2.057827413E-1	1.036092162E0	9.817750931E0	9.874414760E0
1.368967189E0	2.057827413E-1	1.028913736E0	9.781859398E0	9.837976585E0
1.370163283E0	2.033899277E-1	1.014556766E0	9.748359680E0	9.803122428E0
1.371359377E0	2.081755698E-1	1.002592683E0	9.719645500E0	9.773435312E0
1.372555470E0	2.201396823E-1	1.000199914E0	9.695717812E0	9.749656672E0
1.373751564E0	2.297109663E-1	9.954141974E-1	9.678967476E0	9.732729728E0
1.374947658E0	2.297109663E-1	9.930213690E-1	9.662218094E0	9.715828172E0
1.376143752E0	2.368894368E-1	9.834501147E-1	9.645467758E0	9.698367853E0
1.377339845E0	2.464607358E-1	9.690931439E-1	9.633503914E0	9.685261074E0
1.378535939E0	2.464607358E-1	9.619147182E-1	9.621540070E0	9.672644733E0
1.379732033E0	2.440679073E-1	9.571290612E-1	9.616754532E0	9.667348805E0
1.380928074E0	2.512463629E-1	9.619147182E-1	9.609575272E0	9.660866502E0
1.382124168E0	2.656033039E-1	9.738788009E-1	9.600004196E0	9.652930415E0
1.383320314E0	2.656033039E-1	9.738788009E-1	9.604789734E0	9.657689727E0
1.384516356E0	2.608176768E-1	9.643075466E-1	9.621540070E0	9.673259441E0
1.385712449E0	2.679961324E-1	9.523434043E-1	9.631111145E0	9.681791248E0
1.386908543E0	2.703889608E-1	9.427721500E-1	9.623932838E0	9.673779654E0
1.388104637E0	2.751746178E-1	9.379864931E-1	9.616754532E0	9.666307850E0
1.389300731E0	2.751746178E-1	9.355936646E-1	9.614361763E0	9.663695395E0
1.390496824E0	2.703889608E-1	9.308080077E-1	9.607182503E0	9.655955125E0
1.391692918E0	2.727817893E-1	9.284151793E-1	9.611968994E0	9.660554466E0
1.392889012E0	2.823530734E-1	9.188438654E-1	9.619147301E0	9.667057055E0
1.394085106E0	2.943171859E-1	9.140582681E-1	9.623932838E0	9.671722101E0
1.395281199E0	2.943171859E-1	9.236295223E-1	9.638289452E0	9.686915797E0
1.396477293E0	2.895315289E-1	9.260223508E-1	9.655039787E0	9.703666276E0
1.397673387E0	2.943171859E-1	9.260223508E-1	9.662218094E0	9.710952502E0
1.398869481E0	3.086741269E-1	9.355936646E-1	9.676574707E0	9.726598238E0
1.400065574E0	3.110669553E-1	9.403793216E-1	9.702896118E0	9.753320922E0
1.401261668E0	2.991028428E-1	9.451649189E-1	9.738788605E0	9.789116545E0
1.402457762E0	2.919243574E-1	9.523434043E-1	9.774680138E0	9.825301501E0
1.403653856E0	2.943171859E-1	9.595218897E-1	9.801001549E0	9.852255388E0
1.404849949E0	2.967100143E-1	9.690931439E-1	9.829715729E0	9.881826231E0
1.406046043E0	3.062812984E-1	9.810572863E-1	9.846465111E0	9.899957415E0
1.407242137E0	3.182454109E-1	9.954141974E-1	9.865608215E0	9.920804152E0
1.408438231E0	3.062812984E-1	1.002592683E0	9.887143135E0	9.942565046E0
1.409634324E0	2.799602449E-1	1.012163997E0	9.908679008E0	9.964174496E0
1.410830418E0	2.775674164E-1	1.019342422E0	9.927821159E0	9.983873778E0
1.412026512E0	2.847459018E-1	1.021735311E0	9.939785004E0	9.996216744E0
1.413222606E0	2.847459018E-1	1.021735311E0	9.949356079E0	1.000573384E1
1.414418699E0	2.847459018E-1	1.024128079E0	9.963713646E0	1.002025490E1
1.415614793E0	2.847459018E-1	1.028913736E0	9.980463028E0	1.003739936E1
1.416810887E0	2.871387303E-1	1.043270707E0	9.987641335E0	1.004608590E1
1.418006981E0	2.823530734E-1	1.062413216E0	9.987641335E0	1.004795624E1
1.419203074E0	2.703889608E-1	1.064806104E0	9.987641335E0	1.004788046E1
1.420399168E0	2.632105052E-1	1.057627559E0	9.987641335E0	1.004693163E1
1.421595262E0	2.584248483E-1	1.057627559E0	9.990034103E0	1.004918608E1
1.422791356E0	2.608176768E-1	1.052842021E0	9.999606133E0	1.005826153E1
1.423987449E0	2.560320199E-1	1.062413216E0	1.000199890E1	1.006152356E1
1.425183543E0	2.464607358E-1	1.069591761E0	9.994820595E0	1.005490965E1
1.426379637E0	2.440679073E-1	1.074377418E0	9.985248566E0	1.004584715E1
1.427575731E0	2.464607358E-1	1.074377418E0	9.982855797E0	1.004352725E1
1.428771824E0	2.344966233E-1	1.079162955E0	9.978070259E0	1.003899733E1
1.429967918E0	2.177468538E-1	1.088734269E0	9.970891953E0	1.003251924E1
1.431164012E0	2.249253243E-1	1.088734269E0	9.956535339E0	1.001840954E1
1.432360106E0	2.392822653E-1	1.086341500E0	9.932606697E0	9.994702079E0
1.433556199E0	2.321037948E-1	1.086341500E0	9.913464546E0	9.975509477E0
1.434752241E0	2.201396823E-1	1.093519926E0	9.887143135E0	9.949866667E0
1.435948335E0	2.249253243E-1	1.088734269E0	9.868000984E0	9.930426835E0
1.437144481E0	2.416750938E-1	1.083948612E0	9.848857880E0	9.911274034E0
1.438340522E0	2.512463629E-1	1.086341500E0	9.822537422E0	9.885621073E0
1.439536616E0	2.536391914E-1	1.083948612E0	9.791430473E0	9.854511056E0
1.440732710E0	2.679961324E-1	1.071984529E0	9.760323524E0	9.822672145E0
1.441928804E0	2.775674164E-1	1.057627559E0	9.729216576E0	9.790468574E0
1.443124897E0	2.967100143E-1	1.048056364E0	9.702896118E0	9.763844123E0
1.444320991E0	3.182454109E-1	1.048056364E0	9.683753014E0	9.745500229E0
1.445517085E0	3.110669553E-1	1.045663476E0	9.662218094E0	9.723612150E0
1.446713179E0	3.182454109E-1	1.043270707E0	9.640682220E0	9.702187773E0
1.447909272E0	3.326023519E-1	1.038485050E0	9.619147301E0	9.680757735E0
1.449105366E0	3.349951804E-1	1.026520967E0	9.609575272E0	9.670051911E0
1.450301460E0	3.445664644E-1	1.012163997E0	9.602396965E0	9.661740499E0
1.451497554E0	3.421736360E-1	1.002592683E0	9.595218658E0	9.653522465E0
1.452693647E0	3.445664644E-1	9.906286001E-1	9.595218658E0	9.652372360E0
1.453889741E0	3.589234054E-1	9.786644578E-1	9.597611427E0	9.654053824E0
1.455085835E0	3.637090325E-1	9.643075466E-1	9.611968994E0	9.667063735E0
1.456281929E0	3.613162339E-1	9.547362328E-1	9.628718376E0	9.682679808E0
1.457478022E0	3.589234054E-1	9.451649189E-1	9.652647018E0	9.705449871E0
1.458674116E0	3.541377485E-1	9.355936646E-1	9.683753014E0	9.735287437E0
1.459870210E0	3.517449200E-1	9.355936646E-1	9.705288887E0	9.756623001E0
1.461066304E0	3.373879790E-1	9.332008362E-1	9.724431038E0	9.774929844E0
1.462262397E0	3.349951804E-1	9.284151793E-1	9.738788605E0	9.788676111E0
1.463458491E0	3.493520916E-1	9.379864931E-1	9.753145218E0	9.804371840E0
1.464654585E0	3.541377485E-1	9.451649189E-1	9.767501831E0	9.819513343E0
1.465850679E0	3.517449200E-1	9.547362328E-1	9.777072906E0	9.829872857E0
1.467046772E0	3.445664644E-1	9.667003751E-1	9.779465675E0	9.833167575E0
1.468242866E0	3.373879790E-1	9.714859724E-1	9.779465675E0	9.833390287E0
1.469438960E0	3.373879790E-1	9.738788009E-1	9.784252167E0	9.838387115E0
1.470635054E0	3.326023519E-1	9.810572863E-1	9.786644936E0	9.841316823E0
1.471831147E0	3.373879790E-1	9.786644578E-1	9.793823242E0	9.848379992E0
1.473027241E0	3.349951804E-1	9.762716293E-1	9.803394318E0	9.857579227E0
1.474223335E0	3.278166950E-1	9.738788009E-1	9.815358162E0	9.868999927E0
1.475419429E0	3.349951804E-1	9.738788009E-1	9.832108498E0	9.885900020E0
1.476615522E0	3.421736360E-1	9.810572863E-1	9.848857880E0	9.903512394E0
1.477811616E0	3.326023519E-1	9.954141974E-1	9.860821724E0	9.916515458E0
1.479007710E0	3.230310678E-1	9.954141974E-1	9.879964828E0	9.935235453E0
1.480203804E0	3.302095234E-1	9.882357717E-1	9.882357597E0	9.937134393E0
1.481399897E0	3.302095234E-1	9.810572863E-1	9.879964828E0	9.934043323E0
1.482595991E0	3.230310678E-1	9.906286001E-1	9.891928673E0	9.946655064E0
1.483792085E0	3.110669553E-1	1.002592683E0	9.913464546E0	9.968888305E0
1.484988179E0	3.014956415E-1	1.014556766E0	9.927821159E0	9.984080229E0
1.486184272E0	2.775674164E-1	1.024128079E0	9.937392235E0	9.993880449E0
1.487380314E0	2.584248483E-1	1.033699393E0	9.937392235E0	9.994352519E0
1.488576408E0	2.464607358E-1	1.050449133E0	9.932606697E0	9.991039089E0
1.489772502E0	2.392822653E-1	1.055234790E0	9.930213928E0	9.988990195E0
1.490968595E0	2.321037948E-1	1.052842021E0	9.923035622E0	9.981431983E0
1.492164689E0	2.297109663E-1	1.055234790E0	9.911071777E0	9.969735772E0
1.493360783E0	2.249253243E-1	1.057627559E0	9.908679008E0	9.967501550E0
1.494556877E0	2.225325108E-1	1.060020447E0	9.899106979E0	9.958186735E0
1.495752970E0	2.273181528E-1	1.071984529E0	9.894321442E0	9.954818992E0
1.496949064E0	2.297109663E-1	1.083948612E0	9.889535904E0	9.951413574E0
1.498145158E0	2.344966233E-1	1.081555843E0	9.875179291E0	9.936997420E0
1.499341252E0	2.321037948E-1	1.079162955E0	9.856036186E0	9.917656687E0
1.500537345E0	2.177468538E-1	1.074377418E0	9.844072342E0	9.904921040E0
1.501733439E0	2.057827413E-1	1.069591761E0	9.827322960E0	9.887499665E0
1.502929533E0	2.153540403E-1	1.067198873E0	9.801001549E0	9.861284001E0
1.504125627E0	2.297109663E-1	1.067198873E0	9.779465675E0	9.840204747E0
1.505321720E0	2.225325108E-1	1.081555843E0	9.760323524E0	9.822586170E0
1.506517814E0	2.105683982E-1	1.083948612E0	9.731609344E0	9.794054527E0
1.507713908E0	2.153540403E-1	1.076770186E0	9.702896118E0	9.764835097E0
1.508910002E0	2.297109663E-1	1.062413216E0	9.681360245E0	9.742187904E0
1.510106095E0	2.416750938E-1	1.048056364E0	9.662218094E0	9.721897319E0
1.511302189E0	2.536391914E-1	1.048056364E0	9.640682220E0	9.700799382E0
1.512498283E0	2.679961324E-1	1.057627559E0	9.611968994E0	9.673693500E0
1.513694377E0	2.775674164E-1	1.060020447E0	9.590433121E0	9.652828314E0
1.514890470E0	2.751746178E-1	1.038485050E0	9.585647583E0	9.645662852E0
1.516086564E0	2.775674164E-1	1.019342422E0	9.585647583E0	9.643689244E0
1.517282658E0	2.823530734E-1	1.019342422E0	9.573683739E0	9.631936595E0
1.518478752E0	2.895315289E-1	1.012163997E0	9.559326172E0	9.617121260E0
1.519674845E0	3.014956415E-1	1.004985452E0	9.556933403E0	9.614357568E0
1.520870939E0	3.206382394E-1	1.002592683E0	9.549755096E0	9.607591965E0
1.522067033E0	3.206382394E-1	1.000199914E0	9.544969559E0	9.602585726E0
1.523263127E0	3.086741269E-1	1.000199914E0	9.547362328E0	9.604572192E0
1.524459220E0	3.014956415E-1	1.009771109E0	9.554540634E0	9.612480639E0
1.525655314E0	3.038884699E-1	1.019342422E0	9.559326172E0	9.618322309E0
1.526851408E0	3.062812984E-1	1.007378340E0	9.564111710E0	9.621894416E0
1.528047502E0	3.110669553E-1	1.002592683E0	9.571290970E0	9.628684519E0
1.529243595E0	3.158525825E-1	1.007378340E0	9.583254814E0	9.641231602E0
1.530439689E0	3.182454109E-1	1.007378340E0	9.609575272E0	9.667472687E0
1.531635783E0	3.134597540E-1	1.016949654E0	9.638289452E0	9.696858624E0
1.532831877E0	3.086741269E-1	1.024128079E0	9.652647018E0	9.711730665E0
1.534027970E0	3.038884699E-1	1.021735311E0	9.667003632E0	9.725597692E0
1.535224064E0	2.823530734E-1	1.028913736E0	9.686145782E0	9.744732262E0
1.536420106E0	2.632105052E-1	1.033699393E0	9.702896118E0	9.761352739E0
1.537616199E0	2.751746178E-1	1.036092162E0	9.717252731E0	9.776206252E0
1.538812293E0	2.799602449E-1	1.043270707E0	9.731609344E0	9.791374364E0
1.540008387E0	2.727817893E-1	1.048056364E0	9.753145218E0	9.813086858E0
1.541204481E0	2.751746178E-1	1.033699393E0	9.767501831E0	9.825901868E0
1.542400574E0	2.775674164E-1	1.024128079E0	9.762716293E0	9.820209337E0
1.543596668E0	2.799602449E-1	1.028913736E0	9.762716293E0	9.820777497E0
1.544792762E0	2.799602449E-1	1.036092162E0	9.772287369E0	9.831045983E0
1.545988856E0	2.727817893E-1	1.043270707E0	9.781859398E0	9.841117668E0
1.547184949E0	2.727817893E-1	1.050449133E0	9.781859398E0	9.841881251E0
1.548381043E0	2.727817893E-1	1.050449133E0	9.777072906E0	9.837123965E0
1.549577137E0	2.656033039E-1	1.050449133E0	9.772287369E0	9.832171119E0
1.550773231E0	2.608176768E-1	1.050449133E0	9.762716293E0	9.822530156E0
1.551969324E0	2.560320199E-1	1.048056364E0	9.760323524E0	9.819770356E0
1.553165418E0	2.584248483E-1	1.055234790E0	9.760323524E0	9.820601772E0
1.554361512E0	2.632105052E-1	1.055234790E0	9.767501831E0	9.827863056E0
1.555557606E0	2.536391914E-1	1.043270707E0	9.772287369E0	9.831090836E0
1.556753699E0	2.344966233E-1	1.040877819E0	9.765109062E0	9.823226064E0
1.557949793E0	2.273181528E-1	1.048056364E0	9.765109062E0	9.823820575E0
1.559145887E0	2.344966233E-1	1.055234790E0	9.767501831E0	9.827135959E0
1.560341981E0	2.440679073E-1	1.069591761E0	9.762716293E0	9.824165364E0
1.561538074E0	2.368894368E-1	1.081555843E0	9.760323524E0	9.822921915E0
1.562734168E0	2.273181528E-1	1.086341500E0	9.765109062E0	9.827978754E0
1.563930262E0	2.297109663E-1	1.076770186E0	9.762716293E0	9.824603330E0
1.565126356E0	2.344966233E-1	1.071984529E0	9.750752449E0	9.812304154E0
1.566322449E0	2.344966233E-1	1.083948612E0	9.745966911E0	9.808863558E0
1.567518543E0	2.273181528E-1	1.088734269E0	9.745966911E0	9.809224581E0
1.568714637E0	2.177468538E-1	1.098305583E0	9.743574142E0	9.807697279E0
1.569910731E0	2.105683982E-1	1.105484009E0	9.748359680E0	9.813100957E0
1.571106824E0	2.105683982E-1	1.105484009E0	9.748359680E0	9.813100957E0
1.572302918E0	2.129612118E-1	1.110269666E0	9.750752449E0	9.816069709E0
1.573499012E0	2.129612118E-1	1.107876897E0	9.755537987E0	9.820553198E0
1.574695106E0	2.201396823E-1	1.105484009E0	9.765109062E0	9.829949714E0
1.575891199E0	2.201396823E-1	1.112662554E0	9.774680138E0	9.840266827E0
1.577087293E0	2.225325108E-1	1.115055323E0	9.777072906E0	9.842968237E0
1.578283387E0	2.392822653E-1	1.110269666E0	9.772287369E0	9.838066637E0
1.579479481E0	2.392822653E-1	1.112662554E0	9.774680138E0	9.840713681E0
1.580675574E0	2.321037948E-1	1.110269666E0	9.777072906E0	9.842648298E0
1.581871668E0	2.464607358E-1	1.103091240E0	9.777072906E0	9.842190193E0
1.583067762E0	2.536391914E-1	1.098305583E0	9.774680138E0	9.839460340E0
1.584263856E0	2.560320199E-1	1.103091240E0	9.769894600E0	9.835303919E0
1.585459897E0	2.727817893E-1	1.103091240E0	9.769894600E0	9.835754200E0
1.586655991E0	2.847459018E-1	1.095912814E0	9.772287369E0	9.837667688E0
1.587852085E0	2.871387303E-1	1.086341500E0	9.772287369E0	9.836675603E0
1.589048179E0	2.871387303E-1	1.081555843E0	9.772287369E0	9.836148235E0
1.590244272E0	2.895315289E-1	1.081555843E0	9.779465675E0	9.843350062E0
1.591440366E0	3.014956415E-1	1.079162955E0	9.789037704E0	9.852956484E0
1.592636460E0	3.014956415E-1	1.079162955E0	9.781859398E0	9.845824779E0
1.593832554E0	2.967100143E-1	1.081555843E0	9.779465675E0	9.843563825E0
1.595028647E0	2.967100143E-1	1.081555843E0	9.798608780E0	9.862582517E0
1.596224741E0	2.895315289E-1	1.074377418E0	9.808179855E0	9.871094540E0
1.597420835E0	2.919243574E-1	1.074377418E0	9.803394318E0	9.866410027E0
1.598616929E0	2.943171859E-1	1.074377418E0	9.801001549E0	9.864103649E0
1.599813022E0	2.895315289E-1	1.062413216E0	9.801001549E0	9.862666055E0
1.601009116E0	2.943171859E-1	1.069591761E0	9.801001549E0	9.863583553E0
1.602205210E0	2.919243574E-1	1.069591761E0	9.805787086E0	9.868267667E0
1.603401304E0	2.823530734E-1	1.060020447E0	9.812965393E0	9.874090156E0
1.604597397E0	2.799602449E-1	1.064806104E0	9.810572624E0	9.872159085E0
1.605793491E0	2.775674164E-1	1.067198873E0	9.805787086E0	9.867594311E0
1.606989585E0	2.847459018E-1	1.060020447E0	9.803394318E0	9.864647167E0
1.608185679E0	2.919243574E-1	1.048056364E0	9.798608780E0	9.858822242E0
1.609381772E0	2.967100143E-1	1.036092162E0	9.789037704E0	9.848186786E0
1.610577866E0	3.014956415E-1	1.033699393E0	9.786644936E0	9.845702268E0
1.611773960E0	3.110669553E-1	1.036092162E0	9.784252167E0	9.843873226E0
1.612970054E0	3.254238665E-1	1.033699393E0	9.781859398E0	9.841707596E0
1.614166147E0	3.326023519E-1	1.033699393E0	9.772287369E0	9.832434041E0
1.615362241E0	3.373879790E-1	1.028913736E0	9.762716293E0	9.822582326E0
1.616558335E0	3.445664644E-1	1.031306505E0	9.760323524E0	9.820704377E0
1.617754429E0	3.541377485E-1	1.031306505E0	9.760323524E0	9.821044850E0
1.618950522E0	3.517449200E-1	1.026520967E0	9.769894600E0	9.829970004E0
1.620146616E0	3.421736360E-1	1.033699393E0	9.784252167E0	9.844653762E0
1.621342710E0	3.493520916E-1	1.043270707E0	9.801001549E0	9.862560114E0
1.622538804E0	3.397808075E-1	1.038485050E0	9.801001549E0	9.861720618E0
1.623734897E0	3.278166950E-1	1.024128079E0	9.791430473E0	9.850300139E0
1.624930991E0	3.278166950E-1	1.016949654E0	9.796216011E0	9.854313701E0
1.626127085E0	3.086741269E-1	1.016949654E0	9.810572624E0	9.867968460E0
1.627323179E0	2.943171859E-1	1.014556766E0	9.824930191E0	9.881558647E0
1.628519272E0	2.847459018E-1	1.009771109E0	9.827322960E0	9.883167229E0
1.629715366E0	2.775674164E-1	1.007378340E0	9.820143700E0	9.875579835E0
1.630911408E0	2.703889608E-1	1.004985452E0	9.810572624E0	9.865619147E0
1.632107502E0	2.703889608E-1	1.000199914E0	9.803394318E0	9.857994228E0
1.633303595E0	2.679961324E-1	1.009771109E0	9.801001549E0	9.856525299E0
1.634499689E0	2.608176768E-1	1.024128079E0	9.810572624E0	9.867329902E0
1.635695783E0	2.656033039E-1	1.031306505E0	9.815358162E0	9.872962781E0
1.636891877E0	2.703889608E-1	1.033699393E0	9.808179855E0	9.866206804E0
1.638087970E0	2.751746178E-1	1.024128079E0	9.789037704E0	9.846309896E0
1.639284064E0	2.656033039E-1	1.019342422E0	9.777072906E0	9.833654392E0
1.640480158E0	2.584248483E-1	1.021735311E0	9.772287369E0	9.828953498E0
1.641676252E0	2.632105052E-1	1.024128079E0	9.769894600E0	9.826950625E0
1.642872345E0	2.608176768E-1	1.021735311E0	9.765109062E0	9.821879856E0
1.644068439E0	2.464607358E-1	1.026520967E0	9.760323524E0	9.817250302E0
1.645264533E0	2.416750938E-1	1.036092162E0	9.755537987E0	9.813379399E0
1.646460627E0	2.368894368E-1	1.043270707E0	9.755537987E0	9.814023221E0
1.647656720E0	2.368894368E-1	1.048056364E0	9.753145218E0	9.812154727E0
1.648852814E0	2.344966233E-1	1.055234790E0	9.750752449E0	9.810488390E0
1.650048908E0	2.177468538E-1	1.062413216E0	9.748359680E0	9.808498967E0
1.651245002E0	2.129612118E-1	1.069591761E0	9.748359680E0	9.809174046E0
1.652441095E0	2.273181528E-1	1.071984529E0	9.741181374E0	9.802624084E0
1.653637189E0	2.297109663E-1	1.081555843E0	9.729216576E0	9.791842796E0
1.654833283E0	2.273181528E-1	1.088734269E0	9.724431038E0	9.787827893E0
1.656029377E0	2.368894368E-1	1.079162955E0	9.722038269E0	9.784617386E0
1.657225470E0	2.464607358E-1	1.074377418E0	9.726823807E0	9.789082240E0
1.658421564E0	2.536391914E-1	1.071984529E0	9.743574142E0	9.805647390E0
1.659617658E0	2.512463629E-1	1.074377418E0	9.748359680E0	9.810602837E0
1.660813752E0	2.512463629E-1	1.071984529E0	9.750752449E0	9.812718731E0
1.662009845E0	2.488535494E-1	1.057627559E0	9.743574142E0	9.803965586E0
1.663205939E0	2.560320199E-1	1.057627559E0	9.734002113E0	9.794637594E0
1.664402033E0	2.656033039E-1	1.064806104E0	9.729216576E0	9.790914785E0
1.665598127E0	2.679961324E-1	1.064806104E0	9.726823807E0	9.788602318E0
1.666794220E0	2.775674164E-1	1.067198873E0	9.719645500E0	9.781997023E0
1.667990314E0	2.871387303E-1	1.076770186E0	9.714859962E0	9.778567726E0
1.669186408E0	2.919243574E-1	1.071984529E0	9.712467194E0	9.775806343E0
1.670382502E0	3.014956415E-1	1.052842021E0	9.707681656E0	9.769260928E0
1.671578595E0	3.134597540E-1	1.048056364E0	9.698110580E0	9.759612082E0
1.672774689E0	3.182454109E-1	1.043270707E0	9.683753014E0	9.744986728E0
1.673970731E0	3.134597540E-1	1.026520967E0	9.674181938E0	9.733539874E0
1.675166824E0	3.182454109E-1	1.016949654E0	9.671789169E0	9.730312044E0
1.676362918E0	3.349951804E-1	1.021735311E0	9.667003632E0	9.726619353E0
1.677559012E0	3.469592929E-1	1.028913736E0	9.667003632E0	9.727795405E0
1.678755106E0	3.565305769E-1	1.021735311E0	9.664610863E0	9.725006952E0
1.679951199E0	3.684946895E-1	1.009771109E0	9.664610863E0	9.724203266E0
1.681147293E0	3.804588020E-1	1.002592683E0	9.674181938E0	9.733433986E0
1.682343387E0	3.828516304E-1	1.007378340E0	9.678967476E0	9.738778049E0
1.683539481E0	3.756731451E-1	1.012163997E0	9.678967476E0	9.738994695E0
1.684735574E0	3.756731451E-1	1.007378340E0	9.688538551E0	9.748011115E0
1.685931668E0	3.804588020E-1	1.009771109E0	9.702896118E0	9.762713745E0
1.687127762E0	3.900300860E-1	1.004985452E0	9.714859962E0	9.774488392E0
1.688323856E0	3.924229145E-1	9.930213690E-1	9.719645500E0	9.778118215E0
1.689519949E0	3.900300860E-1	9.954141974E-1	9.731609344E0	9.790157983E0
1.690716043E0	3.852444589E-1	1.000199914E0	9.757930756E0	9.816619876E0
1.691912137E0	3.756731451E-1	1.002592683E0	9.772287369E0	9.830764101E0
1.693108231E0	3.708875179E-1	1.009771109E0	9.777072906E0	9.836073905E0
1.694304324E0	3.732803464E-1	1.004985452E0	9.798608780E0	9.857082124E0
1.695500418E0	3.661018610E-1	1.002592683E0	9.832108498E0	9.889872606E0
1.696696512E0	3.445664644E-1	1.004985452E0	9.858428955E0	9.915510237E0
1.697892606E0	3.206382394E-1	1.012163997E0	9.884750366E0	9.941608252E0
1.699088699E0	3.062812984E-1	1.019342422E0	9.903892517E0	9.960921353E0
1.700284793E0	3.134597540E-1	1.014556766E0	9.913464546E0	9.970173607E0
1.701480887E0	3.158525825E-1	1.004985452E0	9.920642853E0	9.976417855E0
1.702676981E0	3.014956415E-1	1.002592683E0	9.925428391E0	9.980491994E0
1.703873074E0	2.871387303E-1	1.009771109E0	9.930213928E0	9.985551312E0
1.705069168E0	2.632105052E-1	1.012163997E0	9.934999466E0	9.989893399E0
1.706265262E0	2.273181528E-1	1.009771109E0	9.942177773E0	9.995909668E0
1.707461356E0	2.009970993E-1	1.014556766E0	9.946963310E0	1.000059020E1
1.708657449E0	2.009970993E-1	1.016949654E0	9.954142570E0	1.000797386E1
1.709853543E0	2.105683982E-1	1.014556766E0	9.946963310E0	1.000078715E1
1.711049637E0	2.105683982E-1	1.016949654E0	9.942177773E0	9.996270530E0
1.712245731E0	1.914258152E-1	1.024128079E0	9.942177773E0	9.996618480E0
1.713441824E0	1.722832322E-1	1.043270707E0	9.939785004E0	9.995870207E0
1.714637918E0	1.603191197E-1	1.060020447E0	9.944570541E0	1.000219120E1
1.715834012E0	1.555334777E-1	1.069591761E0	9.949356079E0	1.000789207E1
1.717030106E0	1.627119333E-1	1.071984529E0	9.951749802E0	1.001064184E1
1.718226199E0	1.651047617E-1	1.069591761E0	9.951749802E0	1.001042508E1
1.719422241E0	1.531406492E-1	1.071984529E0	9.954142570E0	1.001286958E1
1.720618335E0	1.531406492E-1	1.069591761E0	9.944570541E0	1.000309761E1
1.721814429E0	1.651047617E-1	1.064806104E0	9.932606697E0	9.990883215E0
1.723010522E0	1.674975902E-1	1.069591761E0	9.925428391E0	9.984298208E0
1.724206616E0	1.746760458E-1	1.069591761E0	9.911071777E0	9.970149549E0
1.725402710E0	1.890329868E-1	1.074377418E0	9.891928673E0	9.951897968E0
1.726598804E0	1.818545163E-1	1.079162955E0	9.882357597E0	9.942769002E0
1.727794897E0	1.698904037E-1	1.081555843E0	9.868000984E0	9.928548193E0
1.728990991E0	1.651047617E-1	1.081555843E0	9.846465111E0	9.907063026E0
1.730187085E0	1.674975902E-1	1.076770186E0	9.827322960E0	9.887556120E0
1.731383179E0	1.794617027E-1	1.076770186E0	9.817750931E0	9.878252572E0
1.732579272E0	1.842473447E-1	1.081555843E0	9.805787086E0	9.866973726E0
1.733775366E0	1.818545163E-1	1.079162955E0	9.781859398E0	9.842887637E0
1.734971460E0	1.842473447E-1	1.081555843E0	9.772287369E0	9.833682451E0
1.736167554E0	1.938186288E-1	1.086341500E0	9.762716293E0	9.824883355E0
1.737363647E0	1.986042857E-1	1.093519926E0	9.743574142E0	9.806756169E0
1.738559741E0	1.986042857E-1	1.095912814E0	9.722038269E0	9.785627045E0
1.739755835E0	2.009970993E-1	1.083948612E0	9.702896118E0	9.765323216E0
1.740951929E0	2.081755698E-1	1.071984529E0	9.686145782E0	9.747507785E0
1.742148022E0	2.153540403E-1	1.081555843E0	9.664610863E0	9.727324582E0
1.743344116E0	2.273181528E-1	1.081555843E0	9.640682220E0	9.703823487E0
1.744540210E0	2.368894368E-1	1.074377418E0	9.621540070E0	9.684236508E0
1.745736304E0	2.488535494E-1	1.081555843E0	9.611968994E0	9.675827565E0
1.746932397E0	2.560320199E-1	1.076770186E0	9.597611427E0	9.661217912E0
1.748128491E0	2.584248483E-1	1.055234790E0	9.583254814E0	9.644639791E0
1.749324585E0	2.679961324E-1	1.038485050E0	9.571290970E0	9.631193278E0
1.750520679E0	2.823530734E-1	1.026520967E0	9.566504478E0	9.625563697E0
1.751716772E0	2.967100143E-1	1.024128079E0	9.566504478E0	9.625740652E0
1.752912866E0	3.182454109E-1	1.021735311E0	9.561718941E0	9.621418414E0
1.754108960E0	3.373879790E-1	1.024128079E0	9.556933403E0	9.617569602E0
1.755305054E0	3.421736360E-1	1.019342422E0	9.561718941E0	9.621985807E0
1.756501147E0	3.397808075E-1	1.016949654E0	9.561718941E0	9.621647816E0
1.757697241E0	3.445664644E-1	1.009771109E0	9.556933403E0	9.616305934E0
1.758893335E0	3.469592929E-1	1.000199914E0	9.571290970E0	9.629662063E0
1.760089429E0	3.421736360E-1	1.000199914E0	9.602396965E0	9.660409419E0
1.761285470E0	3.302095234E-1	1.000199914E0	9.628718376E0	9.686157947E0
1.762481616E0	3.254238665E-1	1.000199914E0	9.647860527E0	9.705025158E0
1.763677710E0	3.326023519E-1	1.009771109E0	9.671789169E0	9.730044591E0
1.764873752E0	3.373879790E-1	1.024128079E0	9.695717812E0	9.755491420E0
1.766069845E0	3.373879790E-1	1.033699393E0	9.729216576E0	9.789791635E0
1.767265991E0	3.278166950E-1	1.043270707E0	9.762716293E0	9.823772543E0
1.768462033E0	3.086741269E-1	1.038485050E0	9.786644936E0	9.846428287E0
1.769658127E0	2.943171859E-1	1.036092162E0	9.808179855E0	9.867142527E0
1.770854220E0	2.823530734E-1	1.040877819E0	9.827322960E0	9.886325225E0
1.772050314E0	2.679961324E-1	1.048056364E0	9.851250648E0	9.910468375E0
1.773246408E0	2.584248483E-1	1.055234790E0	9.887143135E0	9.946652866E0
1.774442502E0	2.512463629E-1	1.048056364E0	9.908679008E0	9.967119271E0
1.775638595E0	2.368894368E-1	1.043270707E0	9.920642853E0	9.978160401E0
1.776834689E0	2.201396823E-1	1.038485050E0	9.934999466E0	9.991552786E0
1.778030783E0	2.105683982E-1	1.038485050E0	9.946963310E0	1.000324294E1
1.779226877E0	2.129612118E-1	1.031306505E0	9.963713646E0	1.001920831E1
1.780422970E0	2.177468538E-1	1.016949654E0	9.973284721E0	1.002736298E1
1.781619064E0	2.273181528E-1	1.007378340E0	9.980463028E0	1.003374939E1
1.782815158E0	2.297109663E-1	1.000199914E0	9.985248566E0	1.003784618E1
1.784011252E0	2.297109663E-1	1.000199914E0	9.990034103E0	1.004260665E1
1.785207345E0	2.321037948E-1	1.009771109E0	9.992427826E0	1.004600038E1
1.786403439E0	2.416750938E-1	1.014556766E0	9.982855797E0	1.003718796E1
1.787599533E0	2.440679073E-1	1.016949654E0	9.982855797E0	1.003748801E1
1.788795627E0	2.368894368E-1	1.016949654E0	9.973284721E0	1.002779693E1
1.789991720E0	2.297109663E-1	1.028913736E0	9.956535339E0	1.001219389E1
1.791187814E0	2.321037948E-1	1.036092162E0	9.939785004E0	9.996333581E0
1.792383908E0	2.512463629E-1	1.036092162E0	9.920642853E0	9.977763593E0
1.793580002E0	2.656033039E-1	1.048056364E0	9.891928673E0	9.950840172E0
1.794776095E0	2.632105052E-1	1.057627559E0	9.860821724E0	9.920869967E0
1.795972189E0	2.679961324E-1	1.050449133E0	9.844072342E0	9.903586501E0
1.797168283E0	2.679961324E-1	1.045663476E0	9.832108498E0	9.891187570E0
1.798364377E0	2.632105052E-1	1.057627559E0	9.822537422E0	9.882818284E0
1.799560470E0	2.632105052E-1	1.064806104E0	9.808179855E0	9.869320335E0
1.800756720E0	2.584248483E-1	1.069591761E0	9.796216011E0	9.857822177E0
1.801952658E0	2.584248483E-1	1.079162955E0	9.779465675E0	9.842221547E0
1.803148752E0	2.608176768E-1	1.095912814E0	9.753145218E0	9.817988205E0
1.804344793E0	2.608176768E-1	1.110269666E0	9.722038269E0	9.788705364E0
1.805540887E0	2.632105052E-1	1.115055323E0	9.702896118E0	9.770303026E0
1.806736981E0	2.632105052E-1	1.115055323E0	9.686145782E0	9.753668452E0
1.807933074E0	2.608176768E-1	1.105484009E0	9.676574707E0	9.743008715E0
1.809129168E0	2.512463629E-1	1.095912814E0	9.671789169E0	9.736922274E0
1.810325262E0	2.416750938E-1	1.088734269E0	9.662218094E0	9.726366621E0
1.811521356E0	2.440679073E-1	1.081555843E0	9.652647018E0	9.716116850E0
1.812717449E0	2.512463629E-1	1.083948612E0	9.650253296E0	9.714188489E0
1.813913543E0	2.488535494E-1	1.083948612E0	9.652647018E0	9.716504883E0
1.815109637E0	2.440679073E-1	1.079162955E0	9.650253296E0	9.713472628E0
1.816305731E0	2.488535494E-1	1.076770186E0	9.652647018E0	9.715706695E0
1.817501824E0	2.632105052E-1	1.081555843E0	9.657432556E0	9.721370602E0
1.818697918E0	2.703889608E-1	1.088734269E0	9.659825325E0	9.724745642E0
1.819894012E0	2.656033039E-1	1.095912814E0	9.652647018E0	9.718290203E0
1.821090106E0	2.608176768E-1	1.095912814E0	9.647860527E0	9.713406380E0
1.822286199E0	2.560320199E-1	1.095912814E0	9.647860527E0	9.713279057E0
1.823482293E0	2.560320199E-1	1.103091240E0	9.655039787E0	9.721221938E0
1.824678387E0	2.512463629E-1	1.112662554E0	9.662218094E0	9.729316584E0
1.825874481E0	2.368894368E-1	1.112662554E0	9.676574707E0	9.743214697E0
1.827070574E0	2.273181528E-1	1.112662554E0	9.688538551E0	9.754869080E0
1.828266668E0	2.321037948E-1	1.115055323E0	9.693324089E0	9.760007809E0
1.829462762E0	2.321037948E-1	1.117448211E0	9.698110580E0	9.765035151E0
1.830658856E0	2.273181528E-1	1.127019525E0	9.702896118E0	9.770774771E0
1.831854949E0	2.225325108E-1	1.122233868E0	9.707681656E0	9.774866378E0
1.833051043E0	2.153540403E-1	1.115055323E0	9.712467194E0	9.778637161E0
1.834247137E0	2.129612118E-1	1.105484009E0	9.717252731E0	9.782251684E0
1.835443231E0	2.105683982E-1	1.098305583E0	9.719645500E0	9.783768336E0
1.836639324E0	2.105683982E-1	1.088734269E0	9.717252731E0	9.780321161E0
1.837835418E0	2.105683982E-1	1.076770186E0	9.712467194E0	9.774241253E0
1.839031512E0	2.105683982E-1	1.069591761E0	9.722038269E0	9.782964463E0
1.840227606E0	2.129612118E-1	1.057627559E0	9.724431038E0	9.784093598E0
1.841423699E0	2.297109663E-1	1.043270707E0	9.722038269E0	9.780552592E0
1.842619793E0	2.488535494E-1	1.026520967E0	9.722038269E0	9.779248514E0
1.843815835E0	2.512463629E-1	1.019342422E0	9.729216576E0	9.785695626E0
1.845011981E0	2.560320199E-1	1.016949654E0	9.741181374E0	9.797466690E0
1.846208022E0	2.679961324E-1	1.014556766E0	9.750752449E0	9.807054638E0
1.847404116E0	2.679961324E-1	1.007378340E0	9.753145218E0	9.808693832E0
1.848600210E0	2.656033039E-1	1.002592683E0	9.753145218E0	9.808138398E0
1.849796304E0	2.608176768E-1	1.002592683E0	9.757930756E0	9.812768752E0
1.850992397E0	2.632105052E-1	9.834501147E-1	9.760323524E0	9.813275152E0
1.852188491E0	2.727817893E-1	9.690931439E-1	9.762716293E0	9.814488313E0
1.853384585E0	2.727817893E-1	9.714859724E-1	9.772287369E0	9.824245280E0
1.854580679E0	2.703889608E-1	9.738788009E-1	9.779465675E0	9.831556286E0
1.855776772E0	2.847459018E-1	9.810572863E-1	9.784252167E0	9.837435849E0
1.856972866E0	3.014956415E-1	9.810572863E-1	9.798608780E0	9.852213307E0
1.858168960E0	2.991028428E-1	9.714859724E-1	9.810572624E0	9.863091945E0
1.859365054E0	2.943171859E-1	9.714859724E-1	9.810572624E0	9.862947978E0
1.860561147E0	2.967100143E-1	9.738788009E-1	9.810572624E0	9.863255647E0
1.861757241E0	3.038884699E-1	9.882357717E-1	9.815358162E0	9.869661291E0
1.862953335E0	3.086741269E-1	9.882357717E-1	9.815358162E0	9.869809801E0
1.864149429E0	3.086741269E-1	9.690931439E-1	9.812965393E0	9.865531463E0
1.865345522E0	3.086741269E-1	9.643075466E-1	9.812965393E0	9.865062522E0
1.866541616E0	3.086741269E-1	9.690931439E-1	9.805787086E0	9.858391432E0
1.867737710E0	3.062812984E-1	9.762716293E-1	9.810572624E0	9.863784758E0
1.868933804E0	3.086741269E-1	9.834501147E-1	9.827322960E0	9.881231219E0
1.870129897E0	3.086741269E-1	9.882357717E-1	9.836894035E0	9.891227119E0
1.871325991E0	2.871387303E-1	9.834501147E-1	9.834501266E0	9.887721575E0
1.872522085E0	2.823530734E-1	9.834501147E-1	9.832108498E0	9.885203837E0
1.873718179E0	2.847459018E-1	9.858429432E-1	9.829715729E0	9.883130974E0
1.874914272E0	2.703889608E-1	1.000199914E0	9.827322960E0	9.881790658E0
1.876110366E0	2.727817893E-1	1.016949654E0	9.827322960E0	9.883565807E0
1.877306460E0	2.679961324E-1	1.012163997E0	9.817750931E0	9.873425506E0
1.878502554E0	2.392822653E-1	1.012163997E0	9.793823242E0	9.848893626E0
1.879698647E0	2.297109663E-1	1.036092162E0	9.777072906E0	9.834500939E0
1.880894741E0	2.392822653E-1	1.048056364E0	9.772287369E0	9.831239930E0
1.882090835E0	2.440679073E-1	1.055234790E0	9.760323524E0	9.820234463E0
1.883286929E0	2.392822653E-1	1.062413216E0	9.734002113E0	9.794732002E0
1.884482970E0	2.249253243E-1	1.057627559E0	9.712467194E0	9.772470846E0
1.885679116E0	2.153540403E-1	1.071984529E0	9.698110580E0	9.759553116E0
1.886875158E0	2.177468538E-1	1.093519926E0	9.671789169E0	9.735846407E0
1.888071252E0	2.201396823E-1	1.095912814E0	9.659825325E0	9.724284636E0
1.889267345E0	2.249253243E-1	1.091127157E0	9.652647018E0	9.716724980E0
1.890463439E0	2.273181528E-1	1.081555843E0	9.635896683E0	9.699069103E0
1.891659533E0	2.273181528E-1	1.081555843E0	9.626325607E0	9.689560428E0
1.892855627E0	2.177468538E-1	1.091127157E0	9.619147301E0	9.683282861E0
1.894051720E0	1.962114573E-1	1.098305583E0	9.614361763E0	9.678880421E0
1.895247814E0	1.890329868E-1	1.115055323E0	9.609575272E0	9.675898860E0
1.896443908E0	1.866401732E-1	1.131805062E0	9.607182503E0	9.675421071E0
1.897640002E0	1.866401732E-1	1.131805062E0	9.609575272E0	9.677796968E0
1.898836095E0	1.914258152E-1	1.129412293E0	9.604789734E0	9.672859029E0
1.900032189E0	2.081755698E-1	1.124626637E0	9.607182503E0	9.675023399E0
1.901228283E0	2.177468538E-1	1.112662554E0	9.621540070E0	9.688109463E0
1.902424377E0	2.129612118E-1	1.095912814E0	9.628718376E0	9.693224177E0
1.903620470E0	2.057827413E-1	1.081555843E0	9.640682220E0	9.703342891E0
1.904816564E0	2.057827413E-1	1.071984529E0	9.655039787E0	9.716547260E0
1.906012658E0	2.033899277E-1	1.074377418E0	9.669396400E0	9.731026721E0
1.907208752E0	2.057827413E-1	1.067198873E0	9.688538551E0	9.749309680E0
1.908404845E0	2.249253243E-1	1.050449133E0	9.705288887E0	9.764561801E0
1.909600939E0	2.464607358E-1	1.038485050E0	9.724431038E0	9.782829504E0
1.910797033E0	2.536391914E-1	1.036092162E0	9.743574142E0	9.801788453E0
1.911993127E0	2.608176768E-1	1.016949654E0	9.757930756E0	9.814246028E0
1.913189220E0	2.751746178E-1	1.002592683E0	9.772287369E0	9.827436775E0
1.914385314E0	2.823530734E-1	1.004985452E0	9.786644936E0	9.842161252E0
1.915581408E0	2.871387303E-1	1.002592683E0	9.810572624E0	9.865848973E0
1.916777502E0	2.943171859E-1	9.954141974E-1	9.832108498E0	9.886750201E0
1.917973595E0	3.038884699E-1	9.858429432E-1	9.846465111E0	9.900359069E0
1.919169689E0	3.062812984E-1	9.738788009E-1	9.860821724E0	9.913528798E0
1.920365783E0	3.110669553E-1	9.714859724E-1	9.875179291E0	9.927724496E0
1.921561877E0	3.182454109E-1	9.810572863E-1	9.891928673E0	9.945552092E0
1.922757970E0	3.278166950E-1	9.906286001E-1	9.908679008E0	9.963469702E0
1.923954064E0	3.397808075E-1	9.978070259E-1	9.927821159E0	9.983621729E0
1.925150158E0	3.349951804E-1	1.004985452E0	9.939785004E0	9.996076403E0
1.926346199E0	3.254238665E-1	1.012163997E0	9.954142570E0	1.001076076E1
1.927542293E0	3.110669553E-1	1.014556766E0	9.963713646E0	1.002006376E1
1.928738387E0	2.991028428E-1	1.007378340E0	9.968499184E0	1.002373431E1
1.929934481E0	3.014956415E-1	1.004985452E0	9.968499184E0	1.002356580E1
1.931130574E0	2.991028428E-1	1.007378340E0	9.968499184E0	1.002373431E1
1.932326668E0	3.014956415E-1	1.009771109E0	9.973284721E0	1.002880578E1
1.933522762E0	2.943171859E-1	1.009771109E0	9.970891953E0	1.002621298E1
1.934718856E0	2.799602449E-1	1.007378340E0	9.968499184E0	1.002318137E1
1.935914949E0	2.608176768E-1	1.007378340E0	9.963713646E0	1.001790530E1
1.937111043E0	2.488535494E-1	1.004985452E0	9.956535339E0	1.001022077E1
1.938307137E0	2.440679073E-1	1.007378340E0	9.949356079E0	1.000320282E1
1.939503231E0	2.512463629E-1	1.007378340E0	9.942177773E0	9.996241029E0
1.940699324E0	2.464607358E-1	1.016949654E0	9.932606697E0	9.987572542E0
1.941895418E0	2.321037948E-1	1.033699393E0	9.920642853E0	9.977051730E0
1.943091512E0	2.392822653E-1	1.043270707E0	9.908679008E0	9.966322765E0
1.944287606E0	2.368894368E-1	1.045663476E0	9.894321442E0	9.952242235E0
1.945483699E0	2.201396823E-1	1.048056364E0	9.879964828E0	9.937836215E0
1.946679793E0	2.201396823E-1	1.052842021E0	9.875179291E0	9.933584641E0
1.947875887E0	2.273181528E-1	1.062413216E0	9.865608215E0	9.925251676E0
1.949071981E0	2.201396823E-1	1.079162955E0	9.848857880E0	9.910250032E0
1.950268074E0	2.081755698E-1	1.086341500E0	9.827322960E0	9.889375687E0
1.951464168E0	2.009970993E-1	1.081555843E0	9.805787086E0	9.867300708E0
1.952660262E0	2.057827413E-1	1.081555843E0	9.798608780E0	9.860265899E0
1.953856356E0	2.249253243E-1	1.086341500E0	9.789037704E0	9.851699774E0
1.955052449E0	2.344966233E-1	1.086341500E0	9.779465675E0	9.842412073E0
1.956248543E0	2.321037948E-1	1.088734269E0	9.767501831E0	9.830732755E0
1.957444637E0	2.249253243E-1	1.103091240E0	9.750752449E0	9.815527240E0
1.958640731E0	2.177468538E-1	1.098305583E0	9.738788605E0	9.802943045E0
1.959836824E0	2.153540403E-1	1.095912814E0	9.722038269E0	9.785981318E0
1.961032918E0	2.177468538E-1	1.107876897E0	9.702896118E0	9.768367212E0
1.962229012E0	2.177468538E-1	1.112662554E0	9.690931320E0	9.757027288E0
1.963425054E0	2.297109663E-1	1.110269666E0	9.678967476E0	9.745146344E0
1.964621147E0	2.416750938E-1	1.105484009E0	9.678967476E0	9.744891644E0
1.965817241E0	2.488535494E-1	1.098305583E0	9.681360245E0	9.746637340E0
1.967013335E0	2.584248483E-1	1.091127157E0	9.671789169E0	9.736572683E0
1.968209429E0	2.679961324E-1	1.095912814E0	9.667003632E0	9.732615580E0
1.969405522E0	2.751746178E-1	1.110269666E0	9.674181938E0	9.741571535E0
1.970601616E0	2.608176768E-1	1.112662554E0	9.678967476E0	9.746202092E0
1.971797710E0	2.488535494E-1	1.115055323E0	9.676574707E0	9.743786457E0
1.972993804E0	2.584248483E-1	1.110269666E0	9.674181938E0	9.741112786E0
1.974189897E0	2.727817893E-1	1.103091240E0	9.681360245E0	9.747818032E0
1.975385991E0	2.823530734E-1	1.098305583E0	9.695717812E0	9.761810400E0
1.976582085E0	2.871387303E-1	1.093519926E0	9.710074425E0	9.775672857E0
1.977778179E0	2.919243574E-1	1.095912814E0	9.729216576E0	9.795095707E0
1.978974272E0	2.823530734E-1	1.095912814E0	9.748359680E0	9.813830272E0
1.980170366E0	2.727817893E-1	1.083948612E0	9.769894600E0	9.833625730E0
1.981366460E0	2.703889608E-1	1.079162955E0	9.791430473E0	9.854431165E0
1.982562554E0	2.656033039E-1	1.079162955E0	9.796216011E0	9.859056037E0
1.983758647E0	2.632105052E-1	1.074377418E0	9.803394318E0	9.865602199E0
1.984954741E0	2.584248483E-1	1.055234790E0	9.824930191E0	9.884814471E0
1.986150835E0	2.560320199E-1	1.026520967E0	9.841679573E0	9.898381409E0
1.987346929E0	2.608176768E-1	1.019342422E0	9.853643417E0	9.909660611E0
1.988543022E0	2.632105052E-1	1.045663476E0	9.870393753E0	9.929117016E0
1.989739116E0	2.632105052E-1	1.064806104E0	9.887143135E0	9.947798308E0
1.990935210E0	2.656033039E-1	1.060020447E0	9.899106979E0	9.959242313E0
1.992131304E0	2.727817893E-1	1.057627559E0	9.906285286E0	9.966316979E0
1.993327397E0	2.895315289E-1	1.055234790E0	9.908679008E0	9.968915120E0
1.994523491E0	3.014956415E-1	1.055234790E0	9.918250084E0	9.978782732E0
1.995719585E0	2.871387303E-1	1.052842021E0	9.927821159E0	9.987620234E0
1.996915679E0	2.656033039E-1	1.045663476E0	9.923035622E0	9.981512569E0
1.998111772E0	2.632105052E-1	1.038485050E0	9.925428391E0	9.983078669E0
1.999307866E0	2.679961324E-1	1.043270707E0	9.930213928E0	9.988462562E0
2.000503960E0	2.751746178E-1	1.045663476E0	9.934999466E0	9.993665372E0
2.001700002E0	2.727817893E-1	1.040877819E0	9.937392235E0	9.995479026E0
2.002896095E0	2.608176768E-1	1.038485050E0	9.942177773E0	9.999668791E0
2.004092189E0	2.536391914E-1	1.040877819E0	9.942177773E0	9.999732913E0
2.005288283E0	2.464607358E-1	1.036092162E0	9.934999466E0	9.991918947E0
2.006484377E0	2.416750938E-1	1.021735311E0	9.927821159E0	9.983185006E0
2.007680470E0	2.440679073E-1	1.016949654E0	9.903892517E0	9.958957914E0
2.008876564E0	2.488535494E-1	1.019342422E0	9.882357597E0	9.937906155E0
2.010072658E0	2.368894368E-1	1.033699393E0	9.870393753E0	9.927201211E0
2.011268752E0	2.177468538E-1	1.040877819E0	9.848857880E0	9.906101244E0
2.012464845E0	2.177468538E-1	1.048056364E0	9.820143700E0	9.878312514E0
2.013660939E0	2.201396823E-1	1.062413216E0	9.801001549E0	9.860872917E0
2.014857033E0	2.153540403E-1	1.067198873E0	9.784252167E0	9.844637183E0
2.016053127E0	2.081755698E-1	1.069591761E0	9.760323524E0	9.820961201E0
2.017249220E0	2.057827413E-1	1.067198873E0	9.731609344E0	9.792113174E0
2.018445314E0	2.057827413E-1	1.071984529E0	9.700503349E0	9.761724366E0
2.019641408E0	2.081755698E-1	1.086341500E0	9.683753014E0	9.746719825E0
2.020837502E0	2.009970993E-1	1.086341500E0	9.662218094E0	9.725173324E0
2.022033595E0	1.938186288E-1	1.081555843E0	9.633503914E0	9.695964437E0
2.023229689E0	1.914258152E-1	1.081555843E0	9.614361763E0	9.676898211E0
2.024425783E0	1.962114573E-1	1.088734269E0	9.604789734E0	9.668289770E0
2.025621877E0	2.057827413E-1	1.088734269E0	9.602396965E0	9.666111748E0
2.026817970E0	2.129612118E-1	1.083948612E0	9.600004196E0	9.663352298E0
2.028014064E0	2.249253243E-1	1.081555843E0	9.602396965E0	9.665732353E0
