"Time (s)"	"Acceleration x (m/s^2)"	"Acceleration y (m/s^2)"	"Acceleration z (m/s^2)"	"Absolute acceleration (m/s^2)"
3.663984400E-2	-1.172483116E-1	1.292124242E-1	9.805787086E0	9.807339262E0
3.783573000E-2	-1.387837082E-1	1.172483116E-1	9.868000984E0	9.869673323E0
3.903177200E-2	-1.483550072E-1	1.004985496E-1	9.927821159E0	9.929438158E0
4.022776100E-2	-1.483550072E-1	8.374879509E-2	9.978070259E0	9.979524496E0
4.142375100E-2	-1.435693651E-1	6.939185411E-2	1.002592659E1	1.002719459E1
4.261963600E-2	-1.387837082E-1	6.699903309E-2	1.007617569E1	1.007735413E1
4.381567800E-2	-1.387837082E-1	6.460621208E-2	1.011924744E1	1.012040531E1
4.501166700E-2	-1.244267747E-1	4.785645381E-2	1.015035343E1	1.015122884E1
4.620765700E-2	-1.148554832E-1	2.153540403E-2	1.017428207E1	1.017495313E1
4.740364700E-2	-1.004985496E-1	-1.196411345E-2	1.019581699E1	1.019631930E1
4.859958400E-2	-7.896314561E-2	-3.349951655E-2	1.021735287E1	1.021771290E1
4.979557400E-2	-6.699903309E-2	-4.546362907E-2	1.024128056E1	1.024160062E1
5.099156300E-2	-5.024927482E-2	-7.178468257E-2	1.025085258E1	1.025122708E1
5.218755300E-2	-3.349951655E-2	-8.853443712E-2	1.024367332E1	1.024411069E1
5.338349000E-2	-1.674975827E-2	-1.076770201E-1	1.022692394E1	1.022750450E1
5.457948000E-2	-2.392822644E-3	-1.339980662E-1	1.021735287E1	1.021823179E1
5.577546900E-2	1.435693540E-2	-1.507478207E-1	1.020778179E1	1.020890494E1
5.697145900E-2	1.914258115E-2	-1.579262912E-1	1.019342422E1	1.019466550E1
5.816734400E-2	3.349951655E-2	-1.627119333E-1	1.018385315E1	1.018520802E1
5.936338600E-2	5.264209956E-2	-1.579262912E-1	1.018624592E1	1.018760609E1
6.055937600E-2	5.503492057E-2	-1.435693651E-1	1.018385315E1	1.018501379E1
6.175536500E-2	5.264209956E-2	-1.292124242E-1	1.017667484E1	1.017763125E1
6.295135500E-2	5.503492057E-2	-1.220339537E-1	1.016471100E1	1.016559250E1
6.414729200E-2	4.546362907E-2	-1.196411327E-1	1.013838959E1	1.013919742E1
6.534328200E-2	3.589234129E-2	-1.004985496E-1	1.012164021E1	1.012220276E1
6.653927200E-2	3.110669367E-2	-7.417750359E-2	1.011924744E1	1.011956712E1
6.773526100E-2	1.196411345E-2	-6.699903309E-2	1.012403297E1	1.012426173E1
6.893119900E-2	-4.785645287E-3	-6.699903309E-2	1.012164021E1	1.012186308E1
7.012718800E-2	-7.178467698E-3	-5.742774159E-2	1.010249710E1	1.010266287E1
7.132317800E-2	-4.785645287E-3	-4.785645381E-2	1.006899738E1	1.006911225E1
7.251916700E-2	1.196411345E-2	-2.392822690E-2	1.002831936E1	1.002835504E1
7.371515700E-2	2.392822690E-2	0.000000000E0	9.982855797E0	9.982884474E0
7.491109400E-2	4.546362907E-2	7.178467698E-3	9.932606697E0	9.932713339E0
7.610703200E-2	7.178468257E-2	2.392822644E-3	9.882357597E0	9.882618603E0
7.730307400E-2	8.614161611E-2	7.178467698E-3	9.820143700E0	9.820524130E0
7.849906300E-2	1.052841991E-1	2.632104978E-2	9.757930756E0	9.758534224E0
7.969500100E-2	1.244267747E-1	4.785645381E-2	9.712467194E0	9.713382071E0
8.089093800E-2	1.363908947E-1	6.460621208E-2	9.681360245E0	9.682536477E0
8.208698000E-2	1.435693651E-1	9.810572863E-2	9.652647018E0	9.654213140E0
8.328296900E-2	1.459621787E-1	1.220339537E-1	9.631111145E0	9.632990145E0
8.447895900E-2	1.579262912E-1	1.220339537E-1	9.619147301E0	9.621217584E0
8.567494900E-2	1.722832322E-1	1.387837082E-1	9.602396965E0	9.604945076E0
8.687083400E-2	1.866401732E-1	1.651047617E-1	9.595218658E0	9.598453794E0
8.806687600E-2	1.842473447E-1	1.890329868E-1	9.602396965E0	9.606024569E0
8.926286500E-2	1.842473447E-1	1.986042857E-1	9.602396965E0	9.606217685E0
9.045885500E-2	1.938186288E-1	1.938186288E-1	9.602396965E0	9.606308281E0
9.165474000E-2	1.890329868E-1	2.009970993E-1	9.600004196E0	9.603968652E0
9.285078200E-2	1.866401732E-1	2.105683982E-1	9.588040352E0	9.592168232E0
9.404677200E-2	2.033899277E-1	2.105683982E-1	9.578469276E0	9.582942147E0
9.524270900E-2	2.105683982E-1	1.962114573E-1	9.566504478E0	9.570833084E0
9.643864700E-2	2.105683982E-1	1.794617027E-1	9.559326172E0	9.563329044E0
9.763468800E-2	2.153540403E-1	1.770688742E-1	9.559326172E0	9.563391010E0
9.883067800E-2	2.201396823E-1	1.794617027E-1	9.556933403E0	9.561152862E0
1.000266670E-1	2.273181528E-1	1.722832322E-1	9.547362328E0	9.551621981E0
1.012226050E-1	2.368894368E-1	1.651047617E-1	9.540184021E0	9.544552758E0
1.024185420E-1	2.392822653E-1	1.579262912E-1	9.540184021E0	9.544490970E0
1.036145840E-1	2.273181528E-1	1.435693651E-1	9.544969559E0	9.548755394E0
1.048105740E-1	2.177468538E-1	1.244267747E-1	9.549755096E0	9.553047583E0
1.060065630E-1	2.129612118E-1	1.124626622E-1	9.552147865E0	9.555183367E0
1.072025010E-1	2.033899277E-1	9.810572863E-2	9.554540634E0	9.557208741E0
1.083984380E-1	1.866401732E-1	8.374879509E-2	9.566504478E0	9.568691465E0
1.095944800E-1	1.986042857E-1	8.614161611E-2	9.573683739E0	9.576130971E0
1.107904690E-1	2.225325108E-1	8.135596663E-2	9.573683739E0	9.576615260E0
1.119864070E-1	2.416750938E-1	6.460621208E-2	9.568898201E0	9.572167654E0
1.131823440E-1	2.464607358E-1	5.503492057E-2	9.566504478E0	9.569836972E0
1.143783860E-1	2.512463629E-1	5.982056633E-2	9.578469276E0	9.581950580E0
1.155743760E-1	2.703889608E-1	6.460621208E-2	9.600004196E0	9.604028567E0
1.167703650E-1	2.823530734E-1	5.024927482E-2	9.621540070E0	9.625813293E0
1.179663550E-1	2.895315289E-1	4.785645381E-2	9.631111145E0	9.635580970E0
1.191622400E-1	3.014956415E-1	5.982056633E-2	9.643074989E0	9.647972501E0
1.203582820E-1	3.230310678E-1	5.503492057E-2	9.662218094E0	9.667773084E0
1.215542720E-1	3.397808075E-1	4.307080805E-2	9.674181938E0	9.680242883E0
1.227502610E-1	3.493520916E-1	4.067798331E-2	9.676574707E0	9.682964404E0
1.239461470E-1	3.565305769E-1	4.307080805E-2	9.681360245E0	9.688018649E0
1.251421880E-1	3.589234054E-1	3.828516230E-2	9.693324089E0	9.700042457E0
1.263381780E-1	3.565305769E-1	3.589234129E-2	9.700503349E0	9.707119426E0
1.275341670E-1	3.589234054E-1	3.349951655E-2	9.702896118E0	9.709590172E0
1.287300530E-1	3.637090325E-1	2.632104978E-2	9.724431038E0	9.731265903E0
1.299260940E-1	3.637090325E-1	2.392822690E-2	9.753145218E0	9.759953815E0
1.311220840E-1	3.637090325E-1	2.632104978E-2	9.769894600E0	9.776697681E0
1.323180740E-1	3.565305769E-1	2.871387079E-2	9.779465675E0	9.786004672E0
1.335140630E-1	3.493520916E-1	3.589234129E-2	9.803394318E0	9.809682731E0
1.347099490E-1	3.445664644E-1	4.067798331E-2	9.834501266E0	9.840619691E0
1.359059900E-1	3.278166950E-1	4.307080805E-2	9.851250648E0	9.856797564E0
1.371019800E-1	3.230310678E-1	4.785645381E-2	9.856036186E0	9.861444550E0
1.382979170E-1	3.134597540E-1	5.024927482E-2	9.872786522E0	9.877889234E0
1.394938550E-1	2.895315289E-1	4.307080805E-2	9.894321442E0	9.898650433E0
1.406898970E-1	2.895315289E-1	4.307080805E-2	9.908679008E0	9.913001730E0
1.418858860E-1	2.919243574E-1	4.785645381E-2	9.930213928E0	9.934619204E0
1.430818760E-1	2.991028428E-1	4.307080805E-2	9.944570541E0	9.949160812E0
1.442778130E-1	3.158525825E-1	4.307080805E-2	9.958928108E0	9.964028654E0
1.454737510E-1	3.206382394E-1	3.828516230E-2	9.968499184E0	9.973728020E0
1.466697920E-1	3.134597540E-1	3.589234129E-2	9.970891953E0	9.975882498E0
1.478657820E-1	3.134597540E-1	4.067798331E-2	9.982855797E0	9.987858708E0
1.490617720E-1	3.254238665E-1	3.589234129E-2	9.994820595E0	1.000018138E1
1.502577610E-1	3.373879790E-1	3.349951655E-2	1.000199890E1	1.000774375E1
1.514536470E-1	3.421736360E-1	4.067798331E-2	1.001396275E1	1.001988959E1
1.526496880E-1	3.349951804E-1	5.024927482E-2	1.003071213E1	1.003643027E1
1.538456780E-1	3.206382394E-1	6.221338734E-2	1.004746246E1	1.005276983E1
1.550416670E-1	3.038884699E-1	8.614161611E-2	1.007856941E1	1.008351774E1
1.562375530E-1	3.038884699E-1	1.124626622E-1	1.010249710E1	1.010769230E1
1.574335940E-1	3.086741269E-1	1.339980662E-1	1.010967541E1	1.011527420E1
1.586295840E-1	3.014956415E-1	1.627119333E-1	1.011446095E1	1.012026161E1
1.598255740E-1	2.895315289E-1	1.890329868E-1	1.011446095E1	1.012036967E1
1.610214590E-1	2.871387303E-1	2.129612118E-1	1.011685371E1	1.012316799E1
1.622175010E-1	2.919243574E-1	2.297109663E-1	1.010728264E1	1.011410645E1
1.634134900E-1	2.943171859E-1	2.297109663E-1	1.008574772E1	1.009265559E1
1.646094800E-1	3.086741269E-1	2.392822653E-1	1.007617569E1	1.008374198E1
1.658053650E-1	3.158525825E-1	2.392822653E-1	1.006421185E1	1.007200968E1
1.670014070E-1	3.230310678E-1	2.297109663E-1	1.003789139E1	1.004571449E1
1.681973970E-1	3.373879790E-1	2.249253243E-1	1.001396275E1	1.002216902E1
1.693933860E-1	3.469592929E-1	2.057827413E-1	9.994820595E0	1.000295786E1
1.705892720E-1	3.565305769E-1	1.794617027E-1	9.973284721E0	9.981268892E0
1.717853130E-1	3.684946895E-1	1.579262912E-1	9.956535339E0	9.964603605E0
1.729813030E-1	3.804588020E-1	1.316052526E-1	9.937392235E0	9.945543387E0
1.741772920E-1	3.924229145E-1	1.196411327E-1	9.918250084E0	9.926731309E0
1.753732820E-1	3.948157430E-1	1.268195957E-1	9.894321442E0	9.903007597E0
1.765692720E-1	3.756731451E-1	1.339980662E-1	9.865608215E0	9.873667568E0
1.777651570E-1	3.661018610E-1	1.316052526E-1	9.846465111E0	9.854147639E0
1.789611990E-1	3.589234054E-1	1.268195957E-1	9.836894035E0	9.844256878E0
1.801571880E-1	3.445664644E-1	1.196411327E-1	9.824930191E0	9.831698394E0
1.813531260E-1	3.326023519E-1	1.124626622E-1	9.815358162E0	9.821635710E0
1.825491150E-1	3.182454109E-1	1.028913707E-1	9.810572624E0	9.816272306E0
1.837451050E-1	3.086741269E-1	9.092725813E-2	9.803394318E0	9.808674102E0
1.849410940E-1	2.991028428E-1	7.896314561E-2	9.791430473E0	9.796316063E0
1.861370840E-1	2.823530734E-1	7.178468257E-2	9.779465675E0	9.783804229E0
1.873330220E-1	2.679961324E-1	6.460621208E-2	9.765109062E0	9.768999482E0
1.885290110E-1	2.488535494E-1	6.221338734E-2	9.750752449E0	9.754125892E0
1.897250010E-1	2.440679073E-1	5.264209956E-2	9.734002113E0	9.737203781E0
1.909209900E-1	2.416750938E-1	3.589234129E-2	9.714859962E0	9.717931838E0
1.921169800E-1	2.225325108E-1	2.392822690E-2	9.705288887E0	9.707869265E0
1.933128650E-1	1.938186288E-1	1.674975827E-2	9.702896118E0	9.704846176E0
1.945089070E-1	1.627119333E-1	1.674975827E-2	9.702896118E0	9.704274770E0
1.957048970E-1	1.435693651E-1	9.571290575E-3	9.707681656E0	9.708747958E0
1.969008860E-1	1.339980662E-1	-2.392822644E-3	9.700503349E0	9.701429093E0
1.980968240E-1	1.268195957E-1	-9.571290575E-3	9.678967476E0	9.679803005E0
1.992928130E-1	1.100698411E-1	-1.435693540E-2	9.662218094E0	9.662855685E0
2.004888030E-1	9.332008660E-2	-1.914258115E-2	9.650253296E0	9.650723483E0
2.016847920E-1	7.896314561E-2	-2.153540403E-2	9.645467758E0	9.645815011E0
2.028807300E-1	5.982056633E-2	-2.871387079E-2	9.645467758E0	9.645695997E0
2.040767190E-1	4.067798331E-2	-2.871387079E-2	9.647860527E0	9.647989010E0
2.052727090E-1	3.828516230E-2	-1.435693540E-2	9.650253296E0	9.650339919E0
2.064686990E-1	2.871387079E-2	-2.392822644E-3	9.652647018E0	9.652690023E0
2.076646880E-1	7.178467698E-3	9.571290575E-3	9.657432556E0	9.657439967E0
2.088606260E-1	0.000000000E0	1.914258115E-2	9.657432556E0	9.657451528E0
2.100565630E-1	-1.196411345E-2	2.871387079E-2	9.664610863E0	9.664660923E0
2.112526050E-1	-2.392822690E-2	4.067798331E-2	9.669396400E0	9.669511570E0
2.124485940E-1	-2.153540403E-2	5.503492057E-2	9.662218094E0	9.662398828E0
2.136445320E-1	-1.196411345E-2	6.221338734E-2	9.659825325E0	9.660033072E0
2.148405220E-1	-7.178467698E-3	7.657032460E-2	9.655039787E0	9.655346076E0
2.160365110E-1	-1.196411345E-2	8.853443712E-2	9.655039787E0	9.655453111E0
2.172325010E-1	-2.392822690E-2	8.614161611E-2	9.650253296E0	9.650667418E0
2.184284380E-1	-2.871387079E-2	8.135596663E-2	9.645467758E0	9.645853594E0
2.196244280E-1	-2.871387079E-2	9.092725813E-2	9.643074989E0	9.643546417E0
2.208204170E-1	-2.153540403E-2	1.028913707E-1	9.633503914E0	9.634077437E0
2.220164070E-1	-2.392822644E-3	9.571290761E-2	9.621540070E0	9.622016421E0
2.232123970E-1	4.785645287E-3	6.699903309E-2	9.607182503E0	9.607417312E0
2.244083340E-1	1.196411345E-2	4.307080805E-2	9.592825890E0	9.592930042E0
2.256043240E-1	2.392822690E-2	3.349951655E-2	9.585647583E0	9.585735984E0
2.268003130E-1	3.110669367E-2	1.196411345E-2	9.583254814E0	9.583312767E0
2.279963030E-1	4.307080805E-2	-7.178467698E-3	9.588040352E0	9.588139779E0
2.291922400E-1	5.982056633E-2	-2.153540403E-2	9.604789734E0	9.605000162E0
2.303882300E-1	6.939185411E-2	-3.349951655E-2	9.623932838E0	9.624241307E0
2.315842190E-1	7.896314561E-2	-3.110669367E-2	9.643074989E0	9.643448452E0
2.327802090E-1	8.853443712E-2	-3.110669367E-2	9.662218094E0	9.662673774E0
2.339761990E-1	8.614161611E-2	-3.589234129E-2	9.690931320E0	9.691380629E0
2.351721360E-1	7.657032460E-2	-3.589234129E-2	9.717252731E0	9.717620692E0
2.363680740E-1	7.417750359E-2	-3.828516230E-2	9.748359680E0	9.748717070E0
2.375641150E-1	8.853443712E-2	-4.307080805E-2	9.793823242E0	9.794318105E0
2.387601050E-1	1.076770201E-1	-3.828516230E-2	9.834501266E0	9.835165238E0
2.399560420E-1	1.124626622E-1	-3.349951655E-2	9.872786522E0	9.873483872E0
2.411520320E-1	1.220339537E-1	-3.589234129E-2	9.913464546E0	9.914280602E0
2.423480220E-1	1.411765367E-1	-4.546362907E-2	9.937392235E0	9.938498991E0
2.435440110E-1	1.555334777E-1	-6.460621208E-2	9.956535339E0	9.957959660E0
2.447400010E-1	1.698904037E-1	-8.135596663E-2	9.975677490E0	9.977455734E0
2.459359900E-1	1.914258152E-1	-9.092725813E-2	9.997213364E0	9.999459318E0
2.471318760E-1	2.225325108E-1	-9.092725813E-2	1.001396275E1	1.001684773E1
2.483279170E-1	2.488535494E-1	-8.135596663E-2	1.001635551E1	1.001977668E1
2.495239070E-1	2.679961324E-1	-6.939185411E-2	1.000439167E1	1.000822111E1
2.507198440E-1	2.847459018E-1	-5.742774159E-2	9.999606133E0	1.000382432E1
2.519158340E-1	3.086741269E-1	-3.589234129E-2	9.999606133E0	1.000443356E1
2.531118240E-1	3.397808075E-1	-9.571290575E-3	9.980463028E0	9.986249790E0
2.543078130E-1	3.589234054E-1	1.914258115E-2	9.954142570E0	9.960629838E0
2.555038030E-1	3.637090325E-1	5.024927482E-2	9.942177773E0	9.948955127E0
2.566996880E-1	3.780659735E-1	7.178468257E-2	9.939785004E0	9.947231416E0
2.578957300E-1	3.996013701E-1	8.853443712E-2	9.939785004E0	9.948208156E0
2.590917190E-1	4.043870270E-1	9.571290761E-2	9.944570541E0	9.953249373E0
2.602877090E-1	4.019941986E-1	1.052841991E-1	9.951749802E0	9.960422090E0
2.614836470E-1	4.019941986E-1	1.244267747E-1	9.961320877E0	9.970205363E0
2.626796360E-1	3.948157430E-1	1.411765367E-1	9.970891953E0	9.979704235E0
2.638756260E-1	3.972085714E-1	1.483550072E-1	9.982855797E0	9.991856370E0
2.650716150E-1	3.900300860E-1	1.507478207E-1	9.999606133E0	1.000834508E1
2.662676050E-1	3.876372576E-1	1.483550072E-1	9.999606133E0	1.000821636E1
2.674635420E-1	3.924229145E-1	1.387837082E-1	1.000439167E1	1.001304696E1
2.686595320E-1	3.804588020E-1	1.292124242E-1	1.001874828E1	1.002680218E1
2.698555220E-1	3.565305769E-1	1.220339537E-1	1.003310490E1	1.004017929E1
2.710515110E-1	3.469592929E-1	1.124626622E-1	1.004028416E1	1.004690672E1
2.722473970E-1	3.397808075E-1	1.004985496E-1	1.003549862E1	1.004175201E1
2.734434380E-1	3.373879790E-1	8.374879509E-2	1.003549862E1	1.004151767E1
2.746394280E-1	3.421736360E-1	6.460621208E-2	1.004028416E1	1.004632085E1
2.758354170E-1	3.421736360E-1	4.785645381E-2	1.003071213E1	1.003666074E1
2.770314070E-1	3.302095234E-1	4.307080805E-2	1.000439167E1	1.000993237E1
2.782273440E-1	3.254238665E-1	4.307080805E-2	9.982855797E0	9.988251381E0
2.794232820E-1	3.158525825E-1	4.785645381E-2	9.966106415E0	9.971225109E0
2.806193240E-1	2.991028428E-1	5.742774159E-2	9.946963310E0	9.951624970E0
2.818153130E-1	2.823530734E-1	5.742774159E-2	9.939785004E0	9.943960334E0
2.830112510E-1	2.560320199E-1	5.024927482E-2	9.939785004E0	9.943208904E0
2.842072400E-1	2.368894368E-1	4.307080805E-2	9.932606697E0	9.935524521E0
2.854032300E-1	2.153540403E-1	3.349951655E-2	9.923035622E0	9.925428733E0
2.865992190E-1	1.818545163E-1	2.392822690E-2	9.920642853E0	9.922338345E0
2.877952090E-1	1.531406492E-1	2.153540403E-2	9.913464546E0	9.914670703E0
2.889910940E-1	1.220339537E-1	1.435693540E-2	9.908679008E0	9.909440857E0
2.901871360E-1	9.810572863E-2	-2.392822644E-3	9.906285286E0	9.906771352E0
2.913831260E-1	8.374879509E-2	-1.674975827E-2	9.901499748E0	9.901868090E0
2.925791150E-1	6.939185411E-2	-2.871387079E-2	9.891928673E0	9.892213735E0
2.937750530E-1	5.982056633E-2	-3.589234129E-2	9.887143135E0	9.887389248E0
2.949710420E-1	5.024927482E-2	-4.307080805E-2	9.882357597E0	9.882579206E0
2.961670320E-1	5.024927482E-2	-4.785645381E-2	9.865608215E0	9.865852254E0
2.973630220E-1	5.742774159E-2	-6.221338734E-2	9.848857880E0	9.849221796E0
2.985589590E-1	5.264209956E-2	-6.939185411E-2	9.836894035E0	9.837279638E0
2.997549490E-1	4.067798331E-2	-6.699903309E-2	9.832108498E0	9.832420916E0
3.009509380E-1	3.110669367E-2	-7.417750359E-2	9.844072342E0	9.844400957E0
3.021469280E-1	1.435693540E-2	-7.178468257E-2	9.839286804E0	9.839559135E0
3.033429170E-1	-2.392822644E-3	-6.221338734E-2	9.820143700E0	9.820341059E0
3.045388550E-1	-2.392822644E-3	-5.264209956E-2	9.808179855E0	9.808321416E0
3.057348440E-1	0.000000000E0	-4.546362907E-2	9.796216011E0	9.796321507E0
3.069308340E-1	-2.392822644E-3	-3.589234129E-2	9.777072906E0	9.777139081E0
3.081268240E-1	-1.196411345E-2	-2.871387079E-2	9.753145218E0	9.753194824E0
3.093228130E-1	-2.153540403E-2	-2.871387079E-2	9.731609344E0	9.731675534E0
3.105187510E-1	-2.153540403E-2	-3.110669367E-2	9.714859962E0	9.714933633E0
3.117147400E-1	-2.153540403E-2	-3.110669367E-2	9.702896118E0	9.702969879E0
3.129107300E-1	-2.153540403E-2	-3.110669367E-2	9.686145782E0	9.686219671E0
3.141067190E-1	-2.392822690E-2	-3.349951655E-2	9.676574707E0	9.676662278E0
3.153026570E-1	-2.871387079E-2	-4.067798331E-2	9.664610863E0	9.664739123E0
3.164986470E-1	-2.632104978E-2	-5.024927482E-2	9.647860527E0	9.648027287E0
3.176946360E-1	-2.632104978E-2	-5.982056633E-2	9.631111145E0	9.631332887E0
3.188906260E-1	-1.914258115E-2	-7.178468257E-2	9.609575272E0	9.609862454E0
3.200865630E-1	-4.785645287E-3	-8.374879509E-2	9.590433121E0	9.590799977E0
3.212825530E-1	9.571290575E-3	-9.810572863E-2	9.566504478E0	9.567012296E0
3.224785420E-1	1.674975827E-2	-1.220339537E-1	9.544969559E0	9.545764334E0
3.236745320E-1	1.435693540E-2	-1.387837082E-1	9.533005714E0	9.534026693E0
3.248705220E-1	1.196411345E-2	-1.435693651E-1	9.525827408E0	9.526916768E0
3.260664590E-1	-2.392822644E-3	-1.411765367E-1	9.516255379E0	9.517302820E0
3.272624490E-1	-4.785645287E-3	-1.339980662E-1	9.499505997E0	9.500452230E0
3.284584380E-1	7.178467698E-3	-1.339980662E-1	9.506684303E0	9.507631327E0
3.296544280E-1	4.785645287E-3	-1.339980662E-1	9.516255379E0	9.517199946E0
3.308503650E-1	7.178467698E-3	-1.316052526E-1	9.518648148E0	9.519560601E0
3.320463550E-1	1.435693540E-2	-1.196411327E-1	9.530612946E0	9.531374677E0
3.332423440E-1	7.178467698E-3	-1.052841991E-1	9.544969559E0	9.545552900E0
3.344383340E-1	4.785645287E-3	-9.571290761E-2	9.564111710E0	9.564591819E0
3.356343240E-1	7.178467698E-3	-8.614161611E-2	9.585647583E0	9.586037320E0
3.368302610E-1	1.196411345E-2	-8.374879509E-2	9.595218658E0	9.595591597E0
3.380262510E-1	2.153540403E-2	-7.896314561E-2	9.600004196E0	9.600353093E0
3.392222400E-1	3.110669367E-2	-6.221338734E-2	9.616754532E0	9.617006076E0
3.404182300E-1	3.110669367E-2	-5.024927482E-2	9.638289452E0	9.638470634E0
3.416141670E-1	3.349951655E-2	-3.828516230E-2	9.657432556E0	9.657566544E0
3.428101570E-1	5.024927482E-2	-1.435693540E-2	9.678967476E0	9.679108560E0
3.440061470E-1	6.699903309E-2	2.392822644E-3	9.693324089E0	9.693555926E0
3.452021360E-1	7.657032460E-2	1.674975827E-2	9.712467194E0	9.712783461E0
3.463981260E-1	8.374879509E-2	3.828516230E-2	9.738788605E0	9.739223948E0
3.475940630E-1	9.332008660E-2	4.785645381E-2	9.767501831E0	9.768064849E0
3.487900530E-1	9.810572863E-2	6.460621208E-2	9.798608780E0	9.799312870E0
3.499860420E-1	9.810572863E-2	8.853443712E-2	9.829715729E0	9.830603969E0
3.511820320E-1	1.100698411E-1	8.614161611E-2	9.853643417E0	9.854634663E0
3.523780220E-1	1.220339537E-1	7.657032460E-2	9.877572060E0	9.878622631E0
3.535739590E-1	1.244267747E-1	8.374879509E-2	9.913464546E0	9.914599094E0
3.547699490E-1	1.292124242E-1	9.810572863E-2	9.944570541E0	9.945893818E0
3.559659380E-1	1.363908947E-1	1.052841991E-1	9.970891953E0	9.972380537E0
3.571619280E-1	1.531406492E-1	1.172483116E-1	9.994820595E0	9.996681347E0
3.583578650E-1	1.722832322E-1	1.387837082E-1	1.000678444E1	1.000922960E1
3.595538550E-1	1.818545163E-1	1.483550072E-1	1.002114105E1	1.002388888E1
3.607498440E-1	1.914258152E-1	1.507478207E-1	1.004028416E1	1.004324025E1
3.619458340E-1	1.866401732E-1	1.435693651E-1	1.005942631E1	1.006218189E1
3.631417720E-1	1.651047617E-1	1.339980662E-1	1.008096218E1	1.008320453E1
3.643377610E-1	1.531406492E-1	1.316052526E-1	1.010249710E1	1.010451482E1
3.655337510E-1	1.651047617E-1	1.339980662E-1	1.012881851E1	1.013105027E1
3.667297400E-1	1.794617027E-1	1.387837082E-1	1.015992451E1	1.016245706E1
3.679257300E-1	1.938186288E-1	1.363908947E-1	1.017906761E1	1.018182624E1
3.691216670E-1	2.153540403E-1	1.196411327E-1	1.019342422E1	1.019640078E1
3.703176570E-1	2.368894368E-1	1.100698411E-1	1.021974564E1	1.022308333E1
3.715136470E-1	2.488535494E-1	1.052841991E-1	1.024845982E1	1.025202133E1
3.727096360E-1	2.632105052E-1	9.332008660E-2	1.025803089E1	1.026183152E1
3.739056260E-1	2.895315289E-1	7.657032460E-2	1.024845982E1	1.025283474E1
3.751015630E-1	3.134597540E-1	6.939185411E-2	1.023410225E1	1.023913674E1
3.762975530E-1	3.421736360E-1	6.460621208E-2	1.023170948E1	1.023763330E1
3.774935420E-1	3.756731451E-1	7.178468257E-2	1.022692394E1	1.023407332E1
3.786895320E-1	4.163511395E-1	8.853443712E-2	1.021017456E1	1.021904355E1
3.798854690E-1	4.498506486E-1	8.614161611E-2	1.018863869E1	1.019892858E1
3.810814590E-1	4.689932466E-1	6.939185411E-2	1.015513897E1	1.016619975E1
3.822774490E-1	4.881358147E-1	5.264209956E-2	1.011924744E1	1.013115080E1
3.834734380E-1	4.953143001E-1	3.828516230E-2	1.009292603E1	1.010514511E1
3.846693760E-1	5.000999570E-1	3.589234129E-2	1.007139015E1	1.008386274E1
3.858653650E-1	4.977070987E-1	3.349951655E-2	1.005464077E1	1.006700728E1
3.870613550E-1	4.905286431E-1	4.067798331E-2	1.002831936E1	1.004039154E1
3.882573440E-1	4.761717021E-1	4.785645381E-2	1.000678444E1	1.001822163E1
3.894532820E-1	4.570291340E-1	3.589234129E-2	1.000917721E1	1.001967027E1
3.906492720E-1	4.331009090E-1	4.067798331E-2	1.000439167E1	1.001384461E1
3.918452610E-1	3.972085714E-1	5.503492057E-2	9.992427826E0	1.000047086E1
3.930412510E-1	3.684946895E-1	5.503492057E-2	9.980463028E0	9.987415053E0
3.942372400E-1	3.278166950E-1	5.264209956E-2	9.968499184E0	9.974026817E0
3.954331780E-1	2.823530734E-1	5.024927482E-2	9.954142570E0	9.958273071E0
3.966291670E-1	2.464607358E-1	4.067798331E-2	9.944570541E0	9.947707316E0
3.978251570E-1	2.177468538E-1	3.110669367E-2	9.939785004E0	9.942218426E0
3.990211470E-1	2.009970993E-1	3.110669367E-2	9.920642853E0	9.922727552E0
4.002171360E-1	1.866401732E-1	2.392822690E-2	9.896714211E0	9.898502881E0
4.014130740E-1	1.770688742E-1	9.571290575E-3	9.870393753E0	9.871986519E0
4.026090630E-1	1.674975902E-1	-1.196411345E-2	9.841679573E0	9.843112079E0
4.038050530E-1	1.459621787E-1	-2.392822690E-2	9.812965393E0	9.814080055E0
4.050010420E-1	1.292124242E-1	-2.392822690E-2	9.784252167E0	9.785134586E0
4.061969800E-1	1.244267747E-1	-3.589234129E-2	9.755537987E0	9.756397475E0
4.073929690E-1	1.244267747E-1	-4.785645381E-2	9.724431038E0	9.725344789E0
4.085889590E-1	1.268195957E-1	-6.221338734E-2	9.686145782E0	9.687175741E0
4.097849490E-1	1.196411327E-1	-7.657032460E-2	9.645467758E0	9.646513634E0
4.109808860E-1	1.220339537E-1	-8.135596663E-2	9.611968994E0	9.613087903E0
4.121768760E-1	1.220339537E-1	-8.853443712E-2	9.590433121E0	9.591618116E0
4.133728650E-1	1.220339537E-1	-1.004985496E-1	9.564111710E0	9.565418184E0
4.145688550E-1	1.268195957E-1	-1.052841991E-1	9.544969559E0	9.546392609E0
4.157648440E-1	1.244267747E-1	-1.076770201E-1	9.521040916E0	9.522462733E0
4.169607820E-1	1.244267747E-1	-1.172483116E-1	9.487542152E0	9.489082426E0
4.181567720E-1	1.244267747E-1	-1.387837082E-1	9.468399048E0	9.470233549E0
4.193527610E-1	1.148554832E-1	-1.579262912E-1	9.444471359E0	9.446489917E0
4.205487510E-1	9.571290761E-2	-1.627119333E-1	9.422935486E0	9.424826221E0
4.217447400E-1	8.374879509E-2	-1.531406492E-1	9.408578873E0	9.410197783E0
4.229406780E-1	7.896314561E-2	-1.459621787E-1	9.401400566E0	9.402865135E0
4.241366670E-1	6.221338734E-2	-1.435693651E-1	9.406186104E0	9.407487427E0
4.253326570E-1	3.589234129E-2	-1.316052526E-1	9.422935486E0	9.423922823E0
4.265286470E-1	7.178467698E-3	-1.052841991E-1	9.434899330E0	9.435489477E0
4.277245840E-1	-9.571290575E-3	-8.853443712E-2	9.454042435E0	9.454461820E0
4.289205740E-1	-1.674975827E-2	-6.939185411E-2	9.482755661E0	9.483024344E0
4.301165630E-1	-2.871387079E-2	-5.024927482E-2	9.501898766E0	9.502075017E0
4.313125530E-1	-5.024927482E-2	-3.110669367E-2	9.516255379E0	9.516438885E0
4.325084900E-1	-6.221338734E-2	-9.571290575E-3	9.528220177E0	9.528428089E0
4.337044800E-1	-7.178468257E-2	1.435693540E-2	9.544969559E0	9.545250287E0
4.349004690E-1	-7.417750359E-2	3.349951655E-2	9.559326172E0	9.559672661E0
4.360964590E-1	-7.896314561E-2	3.589234129E-2	9.568898201E0	9.569291312E0
4.372924490E-1	-8.374879509E-2	3.828516230E-2	9.580862045E0	9.581304564E0
4.384883860E-1	-8.614161611E-2	4.307080805E-2	9.604789734E0	9.605272578E0
4.396843760E-1	-7.417750359E-2	4.785645381E-2	9.623932838E0	9.624337682E0
4.408803650E-1	-6.221338734E-2	5.264209956E-2	9.631111145E0	9.631455943E0
4.420763550E-1	-6.939185411E-2	5.982056633E-2	9.650253296E0	9.650688183E0
4.432723440E-1	-7.178468257E-2	6.221338734E-2	9.664610863E0	9.665077686E0
4.444682820E-1	-6.460621208E-2	6.221338734E-2	9.676574707E0	9.676990365E0
4.456642720E-1	-4.067798331E-2	5.503492057E-2	9.683753014E0	9.683994835E0
4.468602610E-1	-1.435693540E-2	4.307080805E-2	9.683753014E0	9.683859440E0
4.480562510E-1	4.785645287E-3	4.785645381E-2	9.683753014E0	9.683872447E0
4.492521880E-1	2.153540403E-2	5.264209956E-2	9.688538551E0	9.688705498E0
4.504481780E-1	3.828516230E-2	5.742774159E-2	9.686145782E0	9.686391682E0
4.516441670E-1	5.503492057E-2	5.503492057E-2	9.678967476E0	9.679280401E0
4.528401570E-1	6.699903309E-2	3.110669367E-2	9.681360245E0	9.681642045E0
4.540360940E-1	7.657032460E-2	1.196411345E-2	9.683753014E0	9.684063124E0
4.552320840E-1	1.124626622E-1	2.392822644E-3	9.678967476E0	9.679621117E0
4.564280740E-1	1.459621787E-1	-4.785645287E-3	9.676574707E0	9.677676680E0
4.576240630E-1	1.555334777E-1	-1.435693540E-2	9.674181938E0	9.675442778E0
4.588200530E-1	1.698904037E-1	-3.828516230E-2	9.678967476E0	9.680534071E0
4.600159900E-1	1.914258152E-1	-5.264209956E-2	9.678967476E0	9.681003379E0
4.612119800E-1	2.129612118E-1	-6.460621208E-2	9.686145782E0	9.688702006E0
4.624079690E-1	2.344966233E-1	-8.614161611E-2	9.700503349E0	9.703719610E0
4.636039590E-1	2.512463629E-1	-1.004985496E-1	9.702896118E0	9.706668727E0
4.647998970E-1	2.727817893E-1	-1.148554832E-1	9.714859962E0	9.719367561E0
4.659958860E-1	2.799602449E-1	-1.363908947E-1	9.726823807E0	9.731807724E0
4.671918760E-1	2.703889608E-1	-1.507478207E-1	9.745966911E0	9.750882326E0
4.683878650E-1	2.703889608E-1	-1.483550072E-1	9.767501831E0	9.772369795E0
4.695838550E-1	2.799602449E-1	-1.411765367E-1	9.781859398E0	9.786883152E0
4.707797920E-1	2.847459018E-1	-1.459621787E-1	9.801001549E0	9.806223358E0
4.719757820E-1	2.919243574E-1	-1.579262912E-1	9.829715729E0	9.835317578E0
4.731717720E-1	2.967100143E-1	-1.555334777E-1	9.853643417E0	9.859336493E0
4.743677610E-1	2.991028428E-1	-1.507478207E-1	9.870393753E0	9.876075144E0
4.755636990E-1	2.895315289E-1	-1.363908947E-1	9.901499748E0	9.906670896E0
4.767596880E-1	2.871387303E-1	-1.172483116E-1	9.944570541E0	9.949405966E0
4.779556780E-1	2.895315289E-1	-1.028913707E-1	9.978070259E0	9.982800270E0
4.791516670E-1	2.775674164E-1	-9.571290761E-2	1.000199890E1	1.000630734E1
4.803476050E-1	2.608176768E-1	-8.853443712E-2	1.003549862E1	1.003927770E1
4.815435940E-1	2.560320199E-1	-8.614161611E-2	1.004746246E1	1.005109321E1
4.827395840E-1	2.440679073E-1	-8.374879509E-2	1.005224800E1	1.005555930E1
4.839355740E-1	2.368894368E-1	-7.178468257E-2	1.007856941E1	1.008160855E1
4.851315630E-1	2.368894368E-1	-7.657032460E-2	1.009531879E1	1.009838805E1
4.863275010E-1	2.512463629E-1	-8.614161611E-2	1.009292603E1	1.009642020E1
4.875234900E-1	2.727817893E-1	-8.374879509E-2	1.010249710E1	1.010652618E1
4.887194800E-1	2.799602449E-1	-8.614161611E-2	1.011206818E1	1.011630965E1
4.899154690E-1	2.991028428E-1	-7.896314561E-2	1.010967541E1	1.011440728E1
4.911114070E-1	3.038884699E-1	-6.939185411E-2	1.010249710E1	1.010730484E1
4.923073970E-1	3.038884699E-1	-5.264209956E-2	1.009771156E1	1.010242041E1
4.935033860E-1	3.086741269E-1	-3.110669367E-2	1.009053326E1	1.009530132E1
4.946993760E-1	2.991028428E-1	-9.571290575E-3	1.007378292E1	1.007822685E1
4.958953650E-1	2.967100143E-1	1.435693540E-2	1.005464077E1	1.005902798E1
4.970913030E-1	3.038884699E-1	2.871387079E-2	1.003789139E1	1.004253136E1
4.982872920E-1	2.991028428E-1	3.828516230E-2	1.002592659E1	1.003046022E1
4.994832820E-1	2.943171859E-1	4.785645381E-2	1.001396275E1	1.001840121E1
5.006792720E-1	2.871387303E-1	5.742774159E-2	1.001396275E1	1.001824318E1
5.018752090E-1	2.703889608E-1	7.178468257E-2	1.002592659E1	1.002982887E1
5.030711990E-1	2.679961324E-1	8.853443712E-2	1.002114105E1	1.002511488E1
5.042671880E-1	2.632105052E-1	9.810572863E-2	1.001156998E1	1.001550987E1
5.054631780E-1	2.584248483E-1	9.332008660E-2	1.000439167E1	1.000816390E1
5.066591670E-1	2.632105052E-1	9.092725813E-2	9.987641335E0	9.991522755E0
5.078551050E-1	2.679961324E-1	9.571290761E-2	9.961320877E0	9.965384915E0
5.090510940E-1	2.656033039E-1	1.028913707E-1	9.934999466E0	9.939081755E0
5.102470840E-1	2.512463629E-1	9.810572863E-2	9.908679008E0	9.912349326E0
5.114430740E-1	2.344966233E-1	9.092725813E-2	9.889535904E0	9.892733537E0
5.126390110E-1	2.344966233E-1	7.417750359E-2	9.872786522E0	9.875849567E0
5.138350010E-1	2.344966233E-1	6.460621208E-2	9.853643417E0	9.856645029E0
5.150309900E-1	2.273181528E-1	6.939185411E-2	9.832108498E0	9.834980746E0
5.162269800E-1	2.129612118E-1	6.699903309E-2	9.801001549E0	9.803543885E0
5.174229690E-1	2.033899277E-1	5.742774159E-2	9.781859398E0	9.784142205E0
5.186189070E-1	1.938186288E-1	4.785645381E-2	9.784252167E0	9.786288692E0
5.198148970E-1	1.770688742E-1	5.024927482E-2	9.779465675E0	9.781197640E0
5.210108860E-1	1.722832322E-1	5.264209956E-2	9.762716293E0	9.764378225E0
5.222068760E-1	1.722832322E-1	4.067798331E-2	9.750752449E0	9.752359178E0
5.234028130E-1	1.722832322E-1	2.871387079E-2	9.748359680E0	9.749924228E0
5.245988030E-1	1.627119333E-1	2.871387079E-2	9.753145218E0	9.754544649E0
5.257947920E-1	1.507478207E-1	2.632104978E-2	9.750752449E0	9.751953190E0
5.269907820E-1	1.507478207E-1	2.632104978E-2	9.741181374E0	9.742383294E0
5.281867720E-1	1.531406492E-1	3.110669367E-2	9.729216576E0	9.730471461E0
5.293827090E-1	1.579262912E-1	2.632104978E-2	9.712467194E0	9.713786723E0
5.305786990E-1	1.579262912E-1	2.153540403E-2	9.693324089E0	9.694634412E0
5.317746880E-1	1.627119333E-1	4.785645287E-3	9.667003632E0	9.668374077E0
5.329706780E-1	1.674975902E-1	0.000000000E0	9.638289452E0	9.639744758E0
5.341666670E-1	1.603191197E-1	9.571290575E-3	9.614361763E0	9.615703091E0
5.353626050E-1	1.603191197E-1	1.196411345E-2	9.592825890E0	9.594172914E0
5.365585940E-1	1.627119333E-1	2.392822644E-3	9.564111710E0	9.565495998E0
5.377545840E-1	1.531406492E-1	-9.571290575E-3	9.537791252E0	9.539025403E0
5.389505740E-1	1.387837082E-1	-1.674975827E-2	9.518648148E0	9.519674576E0
5.401465110E-1	1.172483116E-1	-2.153540403E-2	9.499505997E0	9.500253950E0
5.413425010E-1	1.004985496E-1	-2.392822690E-2	9.485149384E0	9.485711958E0
5.425384900E-1	8.853443712E-2	-2.153540403E-2	9.468399048E0	9.468837450E0
5.437344800E-1	7.657032460E-2	-1.914258115E-2	9.454042435E0	9.454371889E0
5.449304690E-1	6.939185411E-2	-3.349951655E-2	9.446864128E0	9.447178378E0
5.461264070E-1	5.264209956E-2	-4.067798331E-2	9.442078590E0	9.442312958E0
5.473223970E-1	3.349951655E-2	-4.546362907E-2	9.430113792E0	9.430282885E0
5.485183860E-1	3.349951655E-2	-5.742774159E-2	9.403793335E0	9.404028352E0
5.497143760E-1	3.589234129E-2	-6.699903309E-2	9.384650230E0	9.384958022E0
5.509103130E-1	2.392822690E-2	-7.657032460E-2	9.367900848E0	9.368244333E0
5.521063030E-1	1.674975827E-2	-7.657032460E-2	9.348757744E0	9.349086315E0
5.533022920E-1	1.914258115E-2	-6.221338734E-2	9.332008362E0	9.332235370E0
5.544982820E-1	2.392822690E-2	-5.503492057E-2	9.317651749E0	9.317845004E0
5.556942720E-1	2.153540403E-2	-4.785645381E-2	9.298508644E0	9.298656732E0
5.568902090E-1	3.349951655E-2	-4.067798331E-2	9.279366493E0	9.279516121E0
5.580861990E-1	3.589234129E-2	-3.828516230E-2	9.269794464E0	9.269943011E0
5.592821880E-1	2.392822690E-2	-3.349951655E-2	9.257830620E0	9.257922151E0
5.604781780E-1	2.392822690E-2	-2.392822690E-2	9.248259544E0	9.248321454E0
5.616741150E-1	2.632104978E-2	-1.674975827E-2	9.243474007E0	9.243526657E0
5.628701050E-1	2.392822690E-2	-9.571290575E-3	9.238688469E0	9.238724414E0
5.640660940E-1	2.392822690E-2	-7.178467698E-3	9.224330902E0	9.224364731E0
5.652620840E-1	2.632104978E-2	-1.674975827E-2	9.214759827E0	9.214812641E0
5.664580740E-1	3.349951655E-2	-1.914258115E-2	9.219545364E0	9.219626098E0
5.676540110E-1	3.828516230E-2	-7.178467698E-3	9.221938133E0	9.222020398E0
5.688500010E-1	3.349951655E-2	2.392822644E-3	9.229117393E0	9.229178501E0
5.700459900E-1	3.589234129E-2	7.178467698E-3	9.241081238E0	9.241153729E0
5.712419280E-1	5.264209956E-2	9.571290575E-3	9.245866776E0	9.246021589E0
5.724379170E-1	5.503492057E-2	2.871387079E-2	9.245866776E0	9.246075154E0
5.736339070E-1	4.546362907E-2	5.503492057E-2	9.241081238E0	9.241356947E0
5.748298970E-1	2.632104978E-2	7.178468257E-2	9.229117393E0	9.229434094E0
5.760258860E-1	2.153540403E-2	8.374879509E-2	9.202795982E0	9.203202243E0
5.772218240E-1	2.871387079E-2	9.571290761E-2	9.171689034E0	9.172233380E0
5.784178130E-1	2.153540403E-2	1.124626622E-1	9.126225471E0	9.126943792E0
5.796138030E-1	7.178467698E-3	1.339980662E-1	9.068798065E0	9.069790811E0
5.808097920E-1	-2.392822644E-3	1.555334777E-1	9.023334503E0	9.024675171E0
5.820057820E-1	-1.914258115E-2	1.722832322E-1	8.970691681E0	8.972366309E0
5.832017190E-1	-2.392822690E-2	1.770688742E-1	8.908478737E0	8.910270442E0
5.843977090E-1	-1.196411345E-2	1.746760458E-1	8.858229637E0	8.859959772E0
5.855936990E-1	0.000000000E0	1.818545163E-1	8.827122688E0	8.828995754E0
5.867896880E-1	1.435693540E-2	1.866401732E-1	8.803194046E0	8.805184046E0
5.879856260E-1	3.349951655E-2	1.938186288E-1	8.776873589E0	8.779077279E0
5.891816150E-1	4.307080805E-2	2.009970993E-1	8.755337715E0	8.757750478E0
5.903776050E-1	3.589234129E-2	1.914258152E-1	8.729017258E0	8.731189746E0
5.915735940E-1	2.632104978E-2	1.770688742E-1	8.709874153E0	8.711713606E0
5.927695840E-1	7.178467698E-3	1.794617027E-1	8.690732002E0	8.692587691E0
5.939655220E-1	-9.571290575E-3	1.962114573E-1	8.666803360E0	8.669029417E0
5.951615110E-1	-3.110669367E-2	2.249253243E-1	8.642875671E0	8.645857904E0
5.963575010E-1	-7.178468257E-2	2.560320199E-1	8.621339798E0	8.625439429E0
5.975534900E-1	-1.028913707E-1	2.895315289E-1	8.606983185E0	8.612466237E0
5.987494280E-1	-1.124626622E-1	3.206382394E-1	8.599804878E0	8.606515013E0
5.999454170E-1	-1.268195957E-1	3.373879790E-1	8.597412109E0	8.604964197E0
6.011414070E-1	-1.651047617E-1	3.373879790E-1	8.590232849E0	8.598441175E0
6.023373970E-1	-2.033899277E-1	3.302095234E-1	8.580661774E0	8.589421533E0
6.035333860E-1	-2.297109663E-1	3.206382394E-1	8.568697929E0	8.577771285E0
6.047293240E-1	-2.488535494E-1	3.062812984E-1	8.539983749E0	8.549096956E0
6.059253130E-1	-2.464607358E-1	2.871387303E-1	8.513663292E0	8.522068657E0
6.071213030E-1	-2.464607358E-1	2.608176768E-1	8.496912956E0	8.504486965E0
6.083172920E-1	-2.440679073E-1	2.201396823E-1	8.489734650E0	8.496094694E0
6.095132300E-1	-2.201396823E-1	1.890329868E-1	8.487341881E0	8.492300463E0
6.107092190E-1	-1.938186288E-1	1.746760458E-1	8.487341881E0	8.491351458E0
6.119052090E-1	-1.627119333E-1	1.674975902E-1	8.480163574E0	8.483378152E0
6.131011990E-1	-1.148554832E-1	1.627119333E-1	8.482556343E0	8.484894170E0
6.142971360E-1	-6.221338734E-2	1.483550072E-1	8.492127419E0	8.493651029E0
6.154931260E-1	-1.914258115E-2	1.387837082E-1	8.494520187E0	8.495675404E0
6.166891150E-1	2.632104978E-2	1.459621787E-1	8.492127419E0	8.493422505E0
6.178851050E-1	6.460621208E-2	1.627119333E-1	8.468199730E0	8.470009197E0
6.190810940E-1	9.810572863E-2	1.818545163E-1	8.417949677E0	8.420485292E0
6.202770320E-1	1.220339537E-1	2.009970993E-1	8.346165657E0	8.349477426E0
6.214730220E-1	1.363908947E-1	2.177468538E-1	8.257631302E0	8.261627617E0
6.226690110E-1	1.531406492E-1	2.249253243E-1	8.171489716E0	8.176019058E0
6.238650010E-1	1.674975902E-1	2.225325108E-1	8.102097511E0	8.106883510E0
6.250609380E-1	1.890329868E-1	2.081755698E-1	8.068597794E0	8.073496200E0
6.262569280E-1	2.177468538E-1	1.722832322E-1	8.073383331E0	8.078156573E0
6.274529170E-1	2.273181528E-1	1.292124242E-1	8.102097511E0	8.106315654E0
6.286489070E-1	2.344966233E-1	1.100698411E-1	8.147561073E0	8.151678078E0
6.298448970E-1	2.368894368E-1	9.571290761E-2	8.171489716E0	8.175482967E0
6.310408340E-1	2.153540403E-1	7.417750359E-2	8.154739380E0	8.157919711E0
6.322368240E-1	1.698904037E-1	7.657032460E-2	8.094919205E0	8.097063832E0
6.334328130E-1	1.124626622E-1	1.363908947E-1	8.008777618E0	8.010728386E0
6.346288030E-1	3.828516230E-2	3.110669553E-1	7.829315662E0	7.835586267E0
6.358247920E-1	-3.589234129E-2	6.149554253E-1	7.403393269E0	7.428976398E0
6.370207300E-1	-1.172483116E-1	9.762716293E-1	6.888936520E0	6.958757061E0
6.382167190E-1	-2.321037948E-1	1.296909928E0	6.472585201E0	6.605316550E0
6.394127090E-1	-3.637090325E-1	1.526620865E0	6.128018856E0	6.325778262E0
6.406086990E-1	-5.192425251E-1	1.694118381E0	5.790630817E0	6.055663065E0
6.418046360E-1	-7.034898400E-1	1.926222205E0	5.357530117E0	5.736580767E0
6.430006260E-1	-9.116654396E-1	2.141576290E0	4.220939159E0	4.820146291E0
6.441966150E-1	-1.083948612E0	2.270788670E0	2.548356056E0	3.581276918E0
6.453926050E-1	-1.220339537E0	2.277967215E0	1.234696507E0	2.864059825E0
6.465885940E-1	-1.201196909E0	1.950150490E0	4.163511395E-1	2.327940983E0
6.477845320E-1	-1.002592683E0	1.509871125E0	-1.339980662E-1	1.817376787E0
6.489805220E-1	-7.896314859E-1	1.258624673E0	-1.292124242E-1	1.491425426E0
6.501765110E-1	-6.556333899E-1	1.107876897E0	2.871387079E-2	1.287660998E0
6.513725010E-1	-5.982056856E-1	9.714859724E-1	2.392822690E-2	1.141143110E0
6.525684380E-1	-5.742774606E-1	8.303094506E-1	9.092725813E-2	1.013644983E0
6.537644280E-1	-4.618147612E-1	5.670989752E-1	9.571290761E-2	7.375873385E-1
6.549604170E-1	-2.632105052E-1	2.751746178E-1	-1.196411345E-2	3.809776638E-1
6.561564070E-1	-1.339980662E-1	1.100698411E-1	-4.307080805E-2	1.786783316E-1
6.573523970E-1	-7.657032460E-2	3.828516230E-2	2.392822644E-3	8.564165962E-2
6.585483340E-1	-5.503492057E-2	4.785645287E-3	-9.571290575E-3	5.606562660E-2
6.597443240E-1	-3.110669367E-2	-2.153540403E-2	-0.000000000E0	3.783384751E-2
6.609403130E-1	-1.435693540E-2	-4.546362907E-2	-2.153540403E-2	5.231478556E-2
6.621363030E-1	-2.153540403E-2	-5.024927482E-2	-0.000000000E0	5.466958246E-2
6.633322400E-1	-3.110669367E-2	-4.067798331E-2	-0.000000000E0	5.120863909E-2
6.645282300E-1	-3.589234129E-2	-4.307080805E-2	2.392822644E-3	5.611666659E-2
6.657242190E-1	-3.828516230E-2	-4.546362907E-2	-2.392822644E-3	5.948462676E-2
6.669202090E-1	-4.067798331E-2	-4.307080805E-2	2.392822644E-3	5.929180747E-2
6.681161990E-1	-4.307080805E-2	-4.067798331E-2	9.571290575E-3	6.001168583E-2
6.693121360E-1	-3.828516230E-2	-4.067798331E-2	7.178467698E-3	5.632035491E-2
6.705081260E-1	-3.589234129E-2	-3.828516230E-2	-0.000000000E0	5.247869868E-2
6.717041150E-1	-3.589234129E-2	-3.110669367E-2	-0.000000000E0	4.749617410E-2
6.729001050E-1	-3.349951655E-2	-3.349951655E-2	2.392822644E-3	4.743586004E-2
6.740960420E-1	-4.067798331E-2	-3.589234129E-2	-4.785645287E-3	5.445971805E-2
6.752920320E-1	-4.067798331E-2	-4.067798331E-2	-2.392822644E-3	5.757709834E-2
6.764880220E-1	-3.110669367E-2	-4.785645381E-2	1.196411345E-2	5.831814960E-2
6.776840110E-1	-3.589234129E-2	-4.546362907E-2	2.153540403E-2	6.179785884E-2
6.788799490E-1	-4.307080805E-2	-4.307080805E-2	1.914258115E-2	6.384847238E-2
6.800759380E-1	-4.067798331E-2	-4.546362907E-2	1.435693540E-2	6.267185563E-2
6.812719280E-1	-3.110669367E-2	-4.785645381E-2	9.571290575E-3	5.787465909E-2
6.824679170E-1	-2.632104978E-2	-4.307080805E-2	7.178467698E-3	5.098453262E-2
6.836638550E-1	-2.871387079E-2	-4.067798331E-2	1.674975827E-2	5.253321906E-2
6.848598440E-1	-1.914258115E-2	-3.349951655E-2	1.914258115E-2	4.307080723E-2
6.860558340E-1	-1.196411345E-2	-3.589234129E-2	1.196411345E-2	3.968047611E-2
6.872518240E-1	-1.674975827E-2	-4.307080805E-2	7.178467698E-3	4.676728886E-2
6.884478130E-1	-1.674975827E-2	-3.349951655E-2	2.392822644E-3	3.752995619E-2
6.896437510E-1	-2.871387079E-2	-2.871387079E-2	-4.785645287E-3	4.088856995E-2
6.908397400E-1	-4.785645381E-2	-3.828516230E-2	-4.785645287E-3	6.147272748E-2
6.920357300E-1	-5.264209956E-2	-4.785645381E-2	2.392822644E-3	7.118396180E-2
6.932317190E-1	-6.699903309E-2	-5.503492057E-2	1.196411345E-2	8.752629850E-2
6.944277090E-1	-6.939185411E-2	-6.460621208E-2	2.153540403E-2	9.722636310E-2
6.956236470E-1	-5.264209956E-2	-5.503492057E-2	2.392822690E-2	7.982852354E-2
6.968196360E-1	-3.110669367E-2	-4.546362907E-2	1.674975827E-2	5.757709928E-2
6.980156260E-1	-2.153540403E-2	-5.024927482E-2	1.674975827E-2	5.717794722E-2
6.992116150E-1	-2.871387079E-2	-5.982056633E-2	2.392822690E-2	7.053755435E-2
7.004075530E-1	-3.349951655E-2	-6.221338734E-2	2.871387079E-2	7.627063360E-2
7.016035420E-1	-2.871387079E-2	-5.982056633E-2	2.392822690E-2	7.053755435E-2
7.027995320E-1	-1.914258115E-2	-5.503492057E-2	2.392822690E-2	6.299080043E-2
7.039955220E-1	-1.674975827E-2	-5.024927482E-2	2.392822690E-2	5.812145959E-2
7.051914590E-1	-2.632104978E-2	-4.307080805E-2	2.392822690E-2	5.586100796E-2
7.063874490E-1	-3.110669367E-2	-3.349951655E-2	1.914258115E-2	4.956089601E-2
7.075834380E-1	-3.828516230E-2	-3.589234129E-2	9.571290575E-3	5.334438507E-2
7.087794280E-1	-5.024927482E-2	-2.871387079E-2	1.674975827E-2	6.024973359E-2
7.099754170E-1	-5.503492057E-2	-2.153540403E-2	2.392822690E-2	6.375873393E-2
7.111713550E-1	-4.785645381E-2	-2.871387079E-2	2.392822690E-2	6.072303179E-2
7.123673440E-1	-2.632104978E-2	-3.828516230E-2	2.632104978E-2	5.339802408E-2
7.135633340E-1	-2.392822690E-2	-4.067798331E-2	2.871387079E-2	5.524259901E-2
7.147593240E-1	-3.110669367E-2	-4.785645381E-2	2.871387079E-2	6.389329337E-2
7.159553130E-1	-3.828516230E-2	-5.264209956E-2	3.349951655E-2	7.320629691E-2
7.171512510E-1	-4.307080805E-2	-5.264209956E-2	4.067798331E-2	7.925265597E-2
7.183472400E-1	-3.589234129E-2	-5.024927482E-2	4.546362907E-2	7.668240575E-2
7.195432300E-1	-3.349951655E-2	-5.024927482E-2	4.546362907E-2	7.559198897E-2
7.207392190E-1	-3.589234129E-2	-5.024927482E-2	4.785645381E-2	7.812483570E-2
7.219351570E-1	-3.828516230E-2	-4.546362907E-2	5.982056633E-2	8.432790390E-2
7.231311470E-1	-4.067798331E-2	-4.067798331E-2	6.221338734E-2	8.473430366E-2
7.243271360E-1	-3.828516230E-2	-3.828516230E-2	5.503492057E-2	7.720330166E-2
7.255231260E-1	-3.589234129E-2	-3.349951655E-2	5.264209956E-2	7.198380664E-2
7.267191150E-1	-3.349951655E-2	-3.110669367E-2	5.024927482E-2	6.793256671E-2
7.279150530E-1	-3.349951655E-2	-3.110669367E-2	5.024927482E-2	6.793256671E-2
7.291110420E-1	-3.828516230E-2	-3.110669367E-2	5.503492057E-2	7.390685033E-2
7.303070320E-1	-4.546362907E-2	-3.349951655E-2	5.982056633E-2	8.226578470E-2
7.315030220E-1	-4.546362907E-2	-3.589234129E-2	5.982056633E-2	8.326885304E-2
7.326989590E-1	-4.546362907E-2	-3.349951655E-2	5.982056633E-2	8.226578470E-2
7.338949490E-1	-4.307080805E-2	-4.067798331E-2	6.460621208E-2	8.765703322E-2
7.350909380E-1	-3.828516230E-2	-4.546362907E-2	6.939185411E-2	9.136697782E-2
7.362869280E-1	-3.110669367E-2	-4.307080805E-2	7.417750359E-2	9.124156364E-2
7.374828650E-1	-3.589234129E-2	-4.307080805E-2	7.178468257E-2	9.108455040E-2
7.386788550E-1	-4.067798331E-2	-5.024927482E-2	6.939185411E-2	9.484153817E-2
7.398748440E-1	-3.589234129E-2	-5.503492057E-2	6.939185411E-2	9.556323593E-2
7.410708340E-1	-4.067798331E-2	-5.264209956E-2	6.939185411E-2	9.613073592E-2
7.422668240E-1	-4.307080805E-2	-5.503492057E-2	7.657032460E-2	1.036675050E-1
7.434627610E-1	-4.067798331E-2	-5.264209956E-2	8.374879509E-2	1.069567653E-1
7.446587510E-1	-3.828516230E-2	-5.024927482E-2	8.614161611E-2	1.068228501E-1
7.458547400E-1	-3.589234129E-2	-5.264209956E-2	8.853443712E-2	1.090770249E-1
7.470507300E-1	-3.349951655E-2	-5.264209956E-2	9.332008660E-2	1.122588385E-1
7.482466670E-1	-3.349951655E-2	-4.785645381E-2	1.028913707E-1	1.183177583E-1
7.494426570E-1	-3.589234129E-2	-3.828516230E-2	1.052841991E-1	1.176383288E-1
7.506386470E-1	-4.307080805E-2	-4.067798331E-2	9.810572863E-2	1.146059633E-1
7.518346360E-1	-4.067798331E-2	-4.546362907E-2	1.052841991E-1	1.216815618E-1
7.530306260E-1	-3.589234129E-2	-3.828516230E-2	1.076770201E-1	1.197846170E-1
7.542265630E-1	-3.828516230E-2	-3.110669367E-2	1.052841991E-1	1.162675476E-1
7.554225530E-1	-4.785645381E-2	-3.349951655E-2	1.172483116E-1	1.309947494E-1
7.566185420E-1	-4.785645381E-2	-3.349951655E-2	1.196411327E-1	1.331407466E-1
7.578145320E-1	-3.349951655E-2	-3.589234129E-2	1.292124242E-1	1.382256428E-1
7.590105220E-1	-3.589234129E-2	-3.589234129E-2	1.387837082E-1	1.477749573E-1
7.602064590E-1	-4.067798331E-2	-4.307080805E-2	1.316052526E-1	1.443251030E-1
7.614024490E-1	-4.067798331E-2	-4.307080805E-2	1.244267747E-1	1.378107945E-1
7.625984380E-1	-4.067798331E-2	-4.067798331E-2	1.196411327E-1	1.327531441E-1
7.637944280E-1	-3.828516230E-2	-5.024927482E-2	1.196411327E-1	1.352950254E-1
7.649903650E-1	-3.589234129E-2	-5.264209956E-2	1.268195957E-1	1.419248416E-1
7.661863550E-1	-4.067798331E-2	-5.024927482E-2	1.339980662E-1	1.487789289E-1
7.673823440E-1	-4.546362907E-2	-5.503492057E-2	1.316052526E-1	1.497188250E-1
7.685783340E-1	-3.828516230E-2	-6.221338734E-2	1.316052526E-1	1.505197719E-1
7.697743240E-1	-3.589234129E-2	-6.221338734E-2	1.387837082E-1	1.562679858E-1
7.709702610E-1	-4.307080805E-2	-5.742774159E-2	1.435693651E-1	1.605154280E-1
7.721662510E-1	-4.307080805E-2	-5.503492057E-2	1.531406492E-1	1.683329897E-1
7.733622400E-1	-3.349951655E-2	-5.503492057E-2	1.579262912E-1	1.705631072E-1
7.745581780E-1	-2.632104978E-2	-5.982056633E-2	1.603191197E-1	1.731286168E-1
7.757541670E-1	-3.589234129E-2	-6.699903309E-2	1.674975902E-1	1.839363295E-1
7.769501570E-1	-3.828516230E-2	-6.699903309E-2	1.746760458E-1	1.909616324E-1
7.781461470E-1	-3.589234129E-2	-5.264209956E-2	1.938186288E-1	2.040223313E-1
7.793421360E-1	-3.828516230E-2	-4.546362907E-2	2.153540403E-1	2.234055905E-1
7.805380740E-1	-3.589234129E-2	-4.307080805E-2	2.321037948E-1	2.387792416E-1
7.817340630E-1	-2.392822690E-2	-3.828516230E-2	2.416750938E-1	2.458559835E-1
7.829300530E-1	-1.914258115E-2	-4.067798331E-2	2.464607358E-1	2.505275055E-1
7.841260420E-1	-1.674975827E-2	-4.307080805E-2	2.584248483E-1	2.625243820E-1
7.853220320E-1	-9.571290575E-3	-3.589234129E-2	2.871387303E-1	2.895315530E-1
7.865179690E-1	-9.571290575E-3	-3.349951655E-2	3.110669553E-1	3.130119453E-1
7.877139590E-1	-9.571290575E-3	-4.067798331E-2	3.445664644E-1	3.470912795E-1
7.889099490E-1	-1.196411345E-2	-4.307080805E-2	4.043870270E-1	4.068502208E-1
7.901059380E-1	-1.196411345E-2	-5.024927482E-2	4.881358147E-1	4.908611853E-1
7.913018760E-1	-1.706082582E0	-1.529013634E0	-5.503492355E-1	2.356158898E0
7.924978650E-1	-5.410171986E0	-3.833301783E0	1.501256943E1	1.641162406E1
7.936938550E-1	-7.769495010E0	6.625725746E0	4.332683945E1	4.451382157E1
7.948898440E-1	-1.542652798E1	2.116930199E1	3.646661758E1	4.489912371E1
7.960857820E-1	-2.103291130E1	1.974557304E1	1.187318611E1	3.119685178E1
7.972817720E-1	-1.879322815E1	1.472543049E1	8.142775536E0	2.522555293E1
7.984777610E-1	-1.809452438E1	1.359362507E1	4.548755646E0	2.308440238E1
7.996737510E-1	-1.747478294E1	1.252881908E1	2.732603550E0	2.167501946E1
8.008697400E-1	-1.706800461E1	1.233260822E1	4.395615101E0	2.151119334E1
8.020656780E-1	-2.218864441E1	8.927620888E0	-2.610569477E0	2.405937298E1
8.032616670E-1	-4.527220249E0	-1.118166065E1	1.122712421E1	1.647948956E1
8.044576570E-1	4.472185612E0	-2.672064972E1	9.913464546E0	2.884909608E1
8.056536470E-1	-1.063609695E1	-2.187279129E1	-7.841279984E0	2.555447571E1
8.068496360E-1	-7.278966427E0	-5.879165173E0	1.498624802E1	1.766735874E1
8.080456260E-1	6.675975323E0	7.192824841E0	4.648775864E1	4.751228345E1
8.092415630E-1	6.173482418E0	1.118166065E1	3.376990509E1	3.610467989E1
8.104375530E-1	-1.579262972E0	8.896514893E0	1.246421337E1	1.539476092E1
8.116335420E-1	3.254238665E-1	3.211168051E0	1.558923912E1	1.591985795E1
8.128295320E-1	-2.895315289E-1	2.431107759E0	1.957328916E0	3.134525471E0
8.140254690E-1	-2.321037948E-1	7.154539824E-1	7.944171429E-1	1.094004191E0
8.152214590E-1	-6.939185411E-2	4.833501875E-1	3.845266104E0	3.876146803E0
8.164174490E-1	-2.512463629E-1	3.565305769E-1	-1.186840057E0	1.264447749E0
8.176134380E-1	-1.052841991E-1	-4.785645287E-3	1.095912814E0	1.100968919E0
8.188093760E-1	-1.986042857E-1	2.225325108E-1	-7.585247755E-1	8.150608663E-1
8.200053650E-1	-1.674975902E-1	-2.153540403E-2	2.727817893E-1	3.208256862E-1
8.212013550E-1	-1.651047617E-1	1.220339537E-1	-2.608176768E-1	3.319303070E-1
8.223973440E-1	-1.698904037E-1	2.153540403E-2	-5.264209956E-2	1.791583477E-1
8.235933340E-1	-1.722832322E-1	8.374879509E-2	-7.896314561E-2	2.071968898E-1
8.247892720E-1	-1.746760458E-1	5.742774159E-2	-1.603191197E-1	2.439505823E-1
8.259852610E-1	-1.627119333E-1	5.024927482E-2	-1.076770201E-1	2.014807770E-1
8.271812510E-1	-1.579262912E-1	5.024927482E-2	-1.411765367E-1	2.177074128E-1
8.283772400E-1	-1.579262912E-1	3.349951655E-2	-4.307080805E-2	1.670868803E-1
8.295732300E-1	-1.627119333E-1	4.307080805E-2	-1.004985496E-1	1.960362880E-1
8.307691670E-1	-1.627119333E-1	3.110669367E-2	-1.028913707E-1	1.950113683E-1
8.319651570E-1	-1.459621787E-1	4.307080805E-2	-2.105683982E-1	2.598058938E-1
8.331611470E-1	-1.339980662E-1	3.828516230E-2	-1.842473447E-1	2.310158424E-1
8.343571360E-1	-1.268195957E-1	4.546362907E-2	-1.866401732E-1	2.301840691E-1
8.355530740E-1	-1.196411327E-1	5.264209956E-2	-1.651047617E-1	2.105819879E-1
8.367490630E-1	-1.268195957E-1	6.221338734E-2	-1.674975902E-1	2.191099225E-1
8.379450530E-1	-1.387837082E-1	5.742774159E-2	-1.483550072E-1	2.111115140E-1
8.391410420E-1	-1.531406492E-1	5.982056633E-2	-9.571290761E-2	1.902406878E-1
8.403369800E-1	-1.627119333E-1	5.503492057E-2	-5.024927482E-2	1.789664922E-1
8.415329690E-1	-1.698904037E-1	5.742774159E-2	-4.785645287E-3	1.793978740E-1
8.427289590E-1	-1.722832322E-1	6.699903309E-2	-1.220339537E-1	2.215009444E-1
8.439249490E-1	2.656033039E-1	1.268195957E-1	-8.805587292E-1	9.284460137E-1
8.451209380E-1	1.928615093E0	5.168496966E-1	8.733802438E-1	2.179330823E0
8.463168760E-1	4.563112736E0	1.127019525E0	6.216553211E0	7.793439849E0
8.475128650E-1	6.530013084E0	1.091127157E0	9.676574707E0	1.172466321E1
8.487088550E-1	6.104090691E0	5.168496966E-1	7.408178806E0	9.612916831E0
8.499048440E-1	4.005585194E0	3.589234129E-2	3.536591768E0	5.343545858E0
8.511008340E-1	2.108076811E0	-1.627119333E-1	1.363908887E0	2.516090313E0
8.522967720E-1	9.738788009E-1	-1.004985496E-1	4.067798555E-1	1.060193250E0
8.534927610E-1	4.307080805E-1	-4.067798331E-2	3.230310678E-1	5.399196419E-1
8.546887510E-1	1.603191197E-1	-1.435693540E-2	1.651047617E-1	2.305817080E-1
8.558847400E-1	4.067798331E-2	-4.785645287E-3	1.938186288E-1	1.980991206E-1
8.570806780E-1	-2.392822690E-2	2.392822644E-3	1.507478207E-1	1.526538277E-1
8.582766670E-1	-5.024927482E-2	9.571290575E-3	1.316052526E-1	1.411968192E-1
8.594726570E-1	-6.460621208E-2	1.914258115E-2	1.028913707E-1	1.229920128E-1
8.606686470E-1	-8.374879509E-2	2.153540403E-2	7.657032460E-2	1.155017269E-1
8.618645840E-1	-9.571290761E-2	1.914258115E-2	6.460621208E-2	1.170528160E-1
8.630605740E-1	-9.571290761E-2	1.914258115E-2	5.982056633E-2	1.144809995E-1
8.642565630E-1	-1.028913707E-1	1.674975827E-2	7.178468257E-2	1.265710441E-1
8.654525530E-1	-1.100698411E-1	1.914258115E-2	9.092725813E-2	1.440471264E-1
8.666485420E-1	-1.004985496E-1	1.914258115E-2	1.148554832E-1	1.538121546E-1
8.678444800E-1	-9.571290761E-2	2.153540403E-2	1.268195957E-1	1.603369707E-1
8.690404690E-1	-1.028913707E-1	2.871387079E-2	1.363908947E-1	1.732443265E-1
8.702364590E-1	-1.100698411E-1	3.589234129E-2	1.555334777E-1	1.938924773E-1
8.714324490E-1	-1.148554832E-1	4.307080805E-2	2.033899277E-1	2.375170293E-1
8.726283860E-1	-1.220339537E-1	4.307080805E-2	2.727817893E-1	3.019226473E-1
8.738243760E-1	-1.220339537E-1	4.067798331E-2	3.541377485E-1	3.767764975E-1
8.750203650E-1	-1.172483116E-1	3.828516230E-2	4.450650215E-1	4.618395756E-1
8.762163550E-1	-1.196411327E-1	3.110669367E-2	6.293123364E-1	6.413389461E-1
8.774123440E-1	-1.268195957E-1	3.589234129E-2	1.028913736E0	1.037321043E0
8.786082820E-1	-1.914258115E-2	7.250252366E-1	2.321037948E-1	7.615117883E-1
8.798042720E-1	-3.684946895E-1	1.466800332E0	-1.347159147E0	2.025371403E0
8.810002610E-1	7.657032609E-1	4.945964336E0	8.142775536E0	9.557910761E0
8.821962510E-1	3.055634499E0	8.609375954E0	3.237249756E1	3.363683776E1
8.833921880E-1	4.067798555E-1	7.867600918E0	5.453721237E1	5.510328618E1
8.845881780E-1	-4.591826439E0	4.261617184E0	6.527859497E1	6.557851182E1
8.857841670E-1	-5.046463013E0	1.301695466E0	5.492724228E1	5.517393537E1
8.869801570E-1	-2.950350285E0	7.034898400E-1	2.974996376E1	2.990417711E1
8.881761470E-1	-1.741974831E0	1.770688742E-1	1.311506081E1	1.323142659E1
8.893720840E-1	-1.471585870E0	-5.742774159E-2	6.305087566E0	6.474796687E0
8.905680740E-1	-2.414358139E0	-2.871387303E-1	2.483749866E0	3.475713923E0
8.917640630E-1	-3.979264021E0	-6.245267391E-1	-1.158126116E0	4.191161163E0
8.929600530E-1	-4.457828522E0	-8.949156404E-1	-3.493520975E0	5.733916457E0
8.941559900E-1	-3.493520975E0	-9.738788009E-1	-3.515056372E0	5.050618776E0
8.953519800E-1	-1.942971945E0	-7.345965505E-1	-2.517249346E0	3.263635448E0
8.965479690E-1	-7.657032609E-1	-4.905286431E-1	-1.373480201E0	1.647230310E0
8.977439590E-1	-1.651047617E-1	-2.919243574E-1	-5.742774606E-1	6.650368520E-1
8.989398970E-1	1.579262912E-1	-1.986042857E-1	4.785645381E-2	2.582142830E-1
9.001358860E-1	4.881358147E-1	-1.842473447E-1	5.910272002E-1	7.883760581E-1
9.013318760E-1	9.571290612E-1	-2.656033039E-1	1.227517962E0	1.579063489E0
9.025278650E-1	1.567298889E0	-4.546363056E-1	2.153540373E0	2.702009644E0
9.037238550E-1	2.146361828E0	-7.393822074E-1	3.426522017E0	4.110305132E0
9.049197920E-1	2.634497643E0	-1.110269666E0	5.414957523E0	6.123319487E0
9.061157820E-1	3.165704250E0	-1.629512191E0	8.585447311E0	9.294455278E0
9.073117720E-1	3.699303865E0	-2.294716835E0	1.246421337E1	1.320254481E1
9.085077610E-1	3.907479286E0	-2.933600664E0	1.573041630E1	1.647180634E1
9.097037510E-1	3.555734396E0	-3.326023579E0	1.715653801E1	1.783402581E1
9.108996880E-1	2.682354212E0	-3.306880951E0	1.701057625E1	1.753539820E1
9.120956780E-1	1.505085468E0	-2.773281336E0	1.679522133E1	1.708905589E1
9.132916670E-1	3.517449200E-1	-1.751546144E0	1.729292870E1	1.738496538E1
9.144876570E-1	-5.790630579E-1	-5.383850932E-1	1.772363663E1	1.774126455E1
9.156835940E-1	-1.194018483E0	4.522434771E-1	1.709911156E1	1.714671456E1
9.168795840E-1	-1.488335729E0	1.019342422E0	1.538106441E1	1.548648910E1
9.180755740E-1	-1.495514154E0	1.222732425E0	1.315573883E1	1.329680794E1
9.192715630E-1	-1.311266780E0	1.177268744E0	1.094237804E1	1.108336680E1
9.204675530E-1	-1.014556766E0	9.284151793E-1	9.004191399E0	9.108608177E0
9.216634900E-1	-6.675975323E-1	5.623133183E-1	7.518248558E0	7.568747856E0
9.228594800E-1	-3.493520916E-1	2.249253243E-1	6.635297298E0	6.648293655E0
9.240554690E-1	-1.148554832E-1	3.589234129E-2	6.407979012E0	6.409108757E0
9.252514590E-1	-1.674975827E-2	3.110669367E-2	6.740581512E0	6.740674099E0
9.264473970E-1	-8.614161611E-2	1.411765367E-1	7.448856831E0	7.450692537E0
9.276433860E-1	-3.014956415E-1	2.751746178E-1	8.405985832E0	8.415890832E0
9.288393760E-1	-6.005984545E-1	3.804588020E-1	9.552147865E0	9.578569635E0
9.300353650E-1	-8.805587292E-1	4.331009090E-1	1.073420238E1	1.077896381E1
9.312313550E-1	-1.026520967E0	4.091726840E-1	1.167218876E1	1.172438305E1
9.324272920E-1	-9.523434043E-1	3.110669553E-1	1.206939697E1	1.211090682E1
9.336232820E-1	-6.508477330E-1	1.914258152E-1	1.189950657E1	1.191882977E1
9.348192720E-1	-1.914258152E-1	1.387837082E-1	1.136590767E1	1.136836672E1
9.360152610E-1	3.373879790E-1	1.698904037E-1	1.070070267E1	1.070736807E1
9.372111990E-1	7.872386575E-1	2.057827413E-1	1.002114105E1	1.005412150E1
9.384071880E-1	1.021735311E0	2.033899277E-1	9.308079720E0	9.366197658E0
9.396031780E-1	9.810572863E-1	1.651047617E-1	8.587840080E0	8.645272131E0
9.407991670E-1	7.441678643E-1	1.100698411E-1	8.035098076E0	8.070235577E0
9.419951050E-1	4.713860750E-1	4.785645381E-2	7.783852100E0	7.798259331E0
9.431910940E-1	3.445664644E-1	-1.674975827E-2	7.757531166E0	7.765197769E0
9.443870840E-1	4.211367965E-1	-4.785645381E-2	7.781459332E0	7.792994018E0
9.455830740E-1	5.335994363E-1	-1.674975827E-2	7.769495010E0	7.787814946E0
9.467790630E-1	5.551348329E-1	5.742774159E-2	7.805387497E0	7.825314473E0
9.479750010E-1	5.000999570E-1	1.339980662E-1	8.044670105E0	8.061313326E0
9.491709900E-1	4.307080805E-1	1.938186288E-1	8.516056061E0	8.529143330E0
9.503669800E-1	3.804588020E-1	2.608176768E-1	9.097511292E0	9.109197904E0
9.515629690E-1	3.182454109E-1	3.206382394E-1	9.633503914E0	9.644090765E0
9.527589590E-1	2.225325108E-1	3.469592929E-1	1.006181908E1	1.007025842E1
9.539548970E-1	1.052841991E-1	3.326023519E-1	1.039920712E1	1.040505731E1
9.551508860E-1	2.871387079E-2	3.110669553E-1	1.064327526E1	1.064785872E1
9.563468760E-1	0.000000000E0	3.421736360E-1	1.072941685E1	1.073487162E1
9.575428650E-1	-2.871387079E-2	4.259224236E-1	1.060020447E1	1.060879678E1
9.587388030E-1	-4.307080805E-2	4.929214716E-1	1.029631615E1	1.030819833E1
9.599347920E-1	-1.674975827E-2	4.737788737E-1	9.966106415E0	9.977375609E0
9.611307820E-1	4.067798331E-2	3.900300860E-1	9.767501831E0	9.775370591E0
9.623267720E-1	8.853443712E-2	3.206382394E-1	9.748359680E0	9.754033201E0
9.635227090E-1	7.657032460E-2	2.943171859E-1	9.856036186E0	9.860726896E0
9.647186990E-1	4.546362907E-2	2.799602449E-1	1.000439167E1	1.000841133E1
9.659146880E-1	6.939185411E-2	2.249253243E-1	1.015035343E1	1.015308236E1
9.671106780E-1	1.220339537E-1	1.483550072E-1	1.031067276E1	1.031246209E1
9.683066150E-1	1.627119333E-1	1.052841991E-1	1.042552853E1	1.042732972E1
9.695026050E-1	1.627119333E-1	8.614161611E-2	1.043270683E1	1.043433119E1
9.706985940E-1	1.483550072E-1	5.024927482E-2	1.035374355E1	1.035492828E1
9.718945840E-1	1.794617027E-1	-1.914258115E-2	1.026520920E1	1.026679565E1
9.730905740E-1	2.344966233E-1	-1.004985496E-1	1.025324535E1	1.025641891E1
9.742865110E-1	2.823530734E-1	-1.579262912E-1	1.034656525E1	1.035162192E1
9.754825010E-1	3.182454109E-1	-1.794617027E-1	1.049252701E1	1.049888612E1
9.766784900E-1	3.206382394E-1	-1.818545163E-1	1.057866859E1	1.058508900E1
9.778744800E-1	2.895315289E-1	-1.818545163E-1	1.053081226E1	1.053636116E1
9.790704690E-1	2.560320199E-1	-1.938186288E-1	1.042792130E1	1.043286445E1
9.802664070E-1	2.201396823E-1	-2.057827413E-1	1.036092186E1	1.036530317E1
9.814623970E-1	1.770688742E-1	-1.938186288E-1	1.034177971E1	1.034511124E1
9.826583860E-1	1.244267747E-1	-1.698904037E-1	1.032263660E1	1.032478432E1
9.838543760E-1	5.503492057E-2	-1.387837082E-1	1.027238750E1	1.027347238E1
9.850503130E-1	-7.178467698E-3	-1.196411327E-1	1.021735287E1	1.021805584E1
9.862463030E-1	-5.503492057E-2	-1.363908947E-1	1.020060253E1	1.020166277E1
9.874422920E-1	-6.460621208E-2	-1.674975902E-1	1.022692394E1	1.022849953E1
9.886382820E-1	-6.460621208E-2	-1.698904037E-1	1.024367332E1	1.024528574E1
9.898342720E-1	-7.896314561E-2	-1.339980662E-1	1.019103146E1	1.019221825E1
9.910302090E-1	-8.614161611E-2	-1.124626622E-1	1.010010433E1	1.010109775E1
9.922261990E-1	-7.417750359E-2	-1.292124242E-1	1.003310490E1	1.003421108E1
9.934221880E-1	-4.307080805E-2	-1.627119333E-1	1.002353382E1	1.002494691E1
9.946181780E-1	-9.571290575E-3	-1.483550072E-1	1.005224800E1	1.005334724E1
9.958141150E-1	-7.178467698E-3	-1.028913707E-1	1.004506969E1	1.004559920E1
9.970101050E-1	-1.196411345E-2	-8.135596663E-2	9.975677490E0	9.976016405E0
9.982060940E-1	9.571290575E-3	-1.028913707E-1	9.872786522E0	9.873327299E0
9.994020840E-1	2.632104978E-2	-1.268195957E-1	9.779465675E0	9.780323354E0
1.000598022E0	1.196411345E-2	-1.076770201E-1	9.681360245E0	9.681966415E0
1.001794011E0	-1.196411345E-2	-4.546362907E-2	9.549755096E0	9.549870810E0
1.002990001E0	-4.785645287E-3	-7.178467698E-3	9.413364410E0	9.413368364E0
1.004185990E0	3.828516230E-2	-2.632104978E-2	9.332008362E0	9.332124014E0
1.005381980E0	7.896314561E-2	-5.742774159E-2	9.329615593E0	9.330126486E0
1.006577917E0	8.135596663E-2	-3.110669367E-2	9.377471924E0	9.377876417E0
1.007773907E0	6.460621208E-2	3.589234129E-2	9.434899330E0	9.435188795E0
1.008969897E0	7.417750359E-2	8.614161611E-2	9.451649666E0	9.452333261E0
1.010165886E0	9.571290761E-2	9.571290761E-2	9.430113792E0	9.431085201E0
1.011361824E0	1.028913707E-1	9.092725813E-2	9.403793335E0	9.404795771E0
1.012557813E0	8.853443712E-2	1.172483116E-1	9.396614075E0	9.397762584E0
1.013753803E0	7.417750359E-2	1.698904037E-1	9.403793335E0	9.405620348E0
1.014949792E0	7.896314561E-2	2.153540403E-1	9.394221306E0	9.397021150E0
1.016145730E0	1.100698411E-1	2.440679073E-1	9.377471924E0	9.381293311E0
1.017341719E0	1.220339537E-1	2.536391914E-1	9.355937004E0	9.360169996E0
1.018537709E0	1.148554832E-1	2.608176768E-1	9.336793900E0	9.341142220E0
1.019733699E0	1.220339537E-1	2.703889608E-1	9.320044518E0	9.324764463E0
1.020929688E0	1.339980662E-1	2.823530734E-1	9.303294182E0	9.308542387E0
1.022125626E0	1.387837082E-1	2.919243574E-1	9.296115875E0	9.301733769E0
1.023321615E0	1.268195957E-1	2.799602449E-1	9.308079720E0	9.313152475E0
1.024517605E0	1.196411327E-1	2.560320199E-1	9.336793900E0	9.341069892E0
1.025713594E0	1.411765367E-1	2.584248483E-1	9.401400566E0	9.406011207E0
1.026909740E0	1.627119333E-1	2.967100143E-1	9.473184586E0	9.479226667E0
1.028105522E0	1.722832322E-1	3.326023519E-1	9.518648148E0	9.526015347E0
1.029301511E0	1.698904037E-1	3.445664644E-1	9.549755096E0	9.557479333E0
1.030497501E0	1.698904037E-1	3.349951804E-1	9.590433121E0	9.597785784E0
1.031693490E0	1.938186288E-1	3.230310678E-1	9.652647018E0	9.659995300E0
1.032889428E0	1.986042857E-1	3.230310678E-1	9.714859962E0	9.722257805E0
1.034085417E0	1.746760458E-1	3.254238665E-1	9.757930756E0	9.764918077E0
1.035281407E0	1.555334777E-1	3.014956415E-1	9.805787086E0	9.811653819E0
1.036477397E0	1.674975902E-1	2.536391914E-1	9.877572060E0	9.882247623E0
1.037673386E0	1.866401732E-1	2.201396823E-1	9.973284721E0	9.977459805E0
1.038869324E0	1.770688742E-1	2.153540403E-1	1.006660461E1	1.007046470E1
1.040065313E0	1.555334777E-1	2.321037948E-1	1.012642574E1	1.013027942E1
1.041261303E0	1.483550072E-1	2.321037948E-1	1.014556789E1	1.014930684E1
1.042457292E0	1.674975902E-1	1.866401732E-1	1.014556789E1	1.014866680E1
1.043653230E0	1.842473447E-1	1.459621787E-1	1.015753174E1	1.016025113E1
1.044849219E0	1.651047617E-1	1.435693651E-1	1.016231823E1	1.016467331E1
1.046045209E0	1.316052526E-1	1.339980662E-1	1.014317513E1	1.014491385E1
1.047241199E0	1.292124242E-1	9.810572863E-2	1.012642574E1	1.012772526E1
1.048437188E0	1.459621787E-1	4.307080805E-2	1.014078236E1	1.014192422E1
1.049633126E0	1.411765367E-1	2.392822644E-3	1.019103146E1	1.019200955E1
1.050829115E0	1.244267747E-1	-1.914258115E-2	1.027478027E1	1.027555148E1
1.052025105E0	1.196411327E-1	-3.828516230E-2	1.035135078E1	1.035211296E1
1.053221094E0	1.292124242E-1	-5.982056633E-2	1.039681435E1	1.039778933E1
1.054417032E0	1.459621787E-1	-8.374879509E-2	1.041117096E1	1.041253089E1
1.055613022E0	1.459621787E-1	-1.148554832E-1	1.039442158E1	1.039608083E1
1.056809011E0	1.292124242E-1	-1.363908947E-1	1.035852909E1	1.036023278E1
1.058005001E0	1.220339537E-1	-1.507478207E-1	1.030588722E1	1.030771209E1
1.059200990E0	1.244267747E-1	-1.579262912E-1	1.022692394E1	1.022890004E1
1.060396928E0	1.244267747E-1	-1.627119333E-1	1.014317513E1	1.014524316E1
1.061592917E0	1.028913707E-1	-1.627119333E-1	1.007378292E1	1.007562227E1
1.062788907E0	8.374879509E-2	-1.722832322E-1	1.001874828E1	1.002057945E1
1.063984897E0	8.135596663E-2	-1.794617027E-1	9.978070259E0	9.980015601E0
1.065180834E0	8.853443712E-2	-1.746760458E-1	9.939785004E0	9.941713936E0
1.066376824E0	9.092725813E-2	-1.746760458E-1	9.920642853E0	9.922597145E0
1.067572813E0	8.135596663E-2	-1.818545163E-1	9.920642853E0	9.922643018E0
1.068768803E0	8.135596663E-2	-1.986042857E-1	9.937392235E0	9.939709598E0
1.069964740E0	9.571290761E-2	-2.129612118E-1	9.968499184E0	9.971233094E0
1.071160730E0	9.571290761E-2	-2.129612118E-1	9.990034103E0	9.992762122E0
1.072356719E0	8.135596663E-2	-2.009970993E-1	9.978070259E0	9.980426079E0
1.073552709E0	7.657032460E-2	-1.938186288E-1	9.939785004E0	9.941969352E0
1.074748699E0	7.896314561E-2	-1.866401732E-1	9.894321442E0	9.896396643E0
1.075944636E0	8.374879509E-2	-1.674975902E-1	9.829715729E0	9.831499408E0
1.077140626E0	7.657032460E-2	-1.339980662E-1	9.753145218E0	9.754366209E0
1.078336615E0	6.699903309E-2	-9.571290761E-2	9.671789169E0	9.672494795E0
1.079532605E0	6.221338734E-2	-6.460621208E-2	9.588040352E0	9.588459848E0
1.080728542E0	5.742774159E-2	-5.024927482E-2	9.525827408E0	9.526133042E0
1.081924532E0	5.264209956E-2	-3.349951655E-2	9.497113228E0	9.497318204E0
1.083120522E0	4.785645381E-2	-2.392822644E-3	9.482755661E0	9.482876720E0
1.084316511E0	3.589234129E-2	2.392822690E-2	9.466006279E0	9.466104568E0
1.085512501E0	3.110669367E-2	3.110669367E-2	9.454042435E0	9.454144785E0
1.086708438E0	3.589234129E-2	2.153540403E-2	9.454042435E0	9.454135095E0
1.087904428E0	4.546362907E-2	2.392822690E-2	9.470791817E0	9.470931165E0
1.089100417E0	5.264209956E-2	3.828516230E-2	9.492327690E0	9.492550865E0
1.090296407E0	4.785645381E-2	7.178468257E-2	9.509077072E0	9.509468442E0
1.091492344E0	5.264209956E-2	1.052841991E-1	9.523433685E0	9.524161124E0
1.092688334E0	7.657032460E-2	1.220339537E-1	9.554540634E0	9.555626721E0
1.093884324E0	9.332008660E-2	1.483550072E-1	9.595218658E0	9.596819210E0
1.095080313E0	9.332008660E-2	1.890329868E-1	9.633503914E0	9.635810281E0
1.096276303E0	9.810572863E-2	2.273181528E-1	9.647860527E0	9.651036785E0
1.097472240E0	1.052841991E-1	2.440679073E-1	9.611968994E0	9.615643600E0
1.098668230E0	1.076770201E-1	2.488535494E-1	9.540184021E0	9.544036546E0
1.099864219E0	1.148554832E-1	2.632105052E-1	9.477970123E0	9.482319822E0
1.101060209E0	1.268195957E-1	2.703889608E-1	9.449256897E0	9.453975318E0
1.102256147E0	1.363908947E-1	2.703889608E-1	9.468399048E0	9.473240902E0
1.103452136E0	1.339980662E-1	2.775674164E-1	9.513862610E0	9.518853971E0
1.104648126E0	1.292124242E-1	2.823530734E-1	9.566504478E0	9.571542563E0
1.105844115E0	1.363908947E-1	2.799602449E-1	9.626325607E0	9.631361530E0
1.107040105E0	1.579262912E-1	2.656033039E-1	9.700503349E0	9.705423796E0
1.108236042E0	1.722832322E-1	2.512463629E-1	9.779465675E0	9.784209480E0
1.109432032E0	1.890329868E-1	2.536391914E-1	9.822537422E0	9.827629812E0
1.110628022E0	1.986042857E-1	2.727817893E-1	9.846465111E0	9.852244858E0
1.111824011E0	1.986042857E-1	2.871387303E-1	9.858428955E0	9.864609155E0
1.113019949E0	2.057827413E-1	2.775674164E-1	9.870393753E0	9.876439796E0
1.114215938E0	2.153540403E-1	2.584248483E-1	9.884750366E0	9.890472717E0
1.115411928E0	2.081755698E-1	2.512463629E-1	9.901499748E0	9.906874334E0
1.116607917E0	1.914258152E-1	2.464607358E-1	9.918250084E0	9.923158341E0
1.117803855E0	1.842473447E-1	2.297109663E-1	9.927821159E0	9.932187432E0
1.118999844E0	1.938186288E-1	2.105683982E-1	9.927821159E0	9.931945312E0
1.120195834E0	1.986042857E-1	1.842473447E-1	9.920642853E0	9.924341054E0
1.121391824E0	1.866401732E-1	1.603191197E-1	9.913464546E0	9.916517336E0
1.122587813E0	1.722832322E-1	1.435693651E-1	9.925428391E0	9.927961644E0
1.123783751E0	1.674975902E-1	1.196411327E-1	9.949356079E0	9.951485107E0
1.124979740E0	1.674975902E-1	9.092725813E-2	9.992427826E0	9.994245197E0
1.126175730E0	1.722832322E-1	6.699903309E-2	1.006181908E1	1.006351696E1
1.127371719E0	1.722832322E-1	5.982056633E-2	1.012881851E1	1.013046023E1
1.128567657E0	1.722832322E-1	3.110669367E-2	1.016710377E1	1.016861093E1
1.129763647E0	1.722832322E-1	-4.785645287E-3	1.018146038E1	1.018291903E1
1.130959636E0	1.627119333E-1	-3.349951655E-2	1.019103146E1	1.019238537E1
1.132155626E0	1.531406492E-1	-5.742774159E-2	1.018146038E1	1.018277396E1
1.133351615E0	1.603191197E-1	-7.657032460E-2	1.017428207E1	1.017583318E1
1.134547553E0	1.579262912E-1	-8.853443712E-2	1.016949654E1	1.017110804E1
1.135743542E0	1.459621787E-1	-8.374879509E-2	1.015274620E1	1.015414074E1
1.136939532E0	1.411765367E-1	-7.657032460E-2	1.011924744E1	1.012052185E1
1.138135522E0	1.268195957E-1	-7.657032460E-2	1.007139015E1	1.007247963E1
1.139331459E0	9.810572863E-2	-8.135596663E-2	1.002831936E1	1.002912921E1
1.140527449E0	8.135596663E-2	-1.076770201E-1	1.000199890E1	1.000290933E1
1.141723438E0	7.178468257E-2	-1.339980662E-1	9.975677490E0	9.976835666E0
1.142919428E0	5.024927482E-2	-1.507478207E-1	9.942177773E0	9.943447529E0
1.144115417E0	4.307080805E-2	-1.579262912E-1	9.932606697E0	9.933955486E0
1.145311355E0	4.785645381E-2	-1.603191197E-1	9.934999466E0	9.936408146E0
1.146507344E0	5.264209956E-2	-1.579262912E-1	9.934999466E0	9.936394029E0
1.147703334E0	4.785645381E-2	-1.483550072E-1	9.937392235E0	9.938614787E0
1.148899324E0	3.828516230E-2	-1.363908947E-1	9.934999466E0	9.936009391E0
1.150095261E0	4.307080805E-2	-1.339980662E-1	9.918250084E0	9.919248727E0
1.151291251E0	4.067798331E-2	-1.292124242E-1	9.896714211E0	9.897641270E0
1.152487240E0	2.871387079E-2	-1.100698411E-1	9.868000984E0	9.868656610E0
1.153683230E0	2.871387079E-2	-1.004985496E-1	9.829715729E0	9.830271398E0
1.154879219E0	2.153540403E-2	-9.571290761E-2	9.774680138E0	9.775172455E0
1.156075157E0	1.914258115E-2	-8.614161611E-2	9.712467194E0	9.712868052E0
1.157271147E0	2.392822690E-2	-6.939185411E-2	9.647860527E0	9.648139745E0
1.158467136E0	2.153540403E-2	-4.546362907E-2	9.602396965E0	9.602528739E0
1.159663126E0	1.674975827E-2	-3.110669367E-2	9.583254814E0	9.583319937E0
1.160859063E0	9.571290575E-3	-2.153540403E-2	9.583254814E0	9.583283791E0
1.162055053E0	2.392822690E-2	-9.571290575E-3	9.595218658E0	9.595253268E0
1.163251042E0	4.307080805E-2	7.178467698E-3	9.609575272E0	9.609674476E0
1.164447032E0	5.264209956E-2	3.589234129E-2	9.635896683E0	9.636107323E0
1.165643022E0	6.221338734E-2	5.503492057E-2	9.667003632E0	9.667360475E0
1.166838959E0	7.657032460E-2	6.939185411E-2	9.686145782E0	9.686696979E0
1.168034949E0	8.853443712E-2	9.571290761E-2	9.683753014E0	9.684630697E0
1.169230938E0	9.092725813E-2	1.196411327E-1	9.671789169E0	9.672956503E0
1.170426928E0	9.332008660E-2	1.316052526E-1	9.645467758E0	9.646816929E0
1.171622865E0	1.124626622E-1	1.435693651E-1	9.611968994E0	9.613698974E0
1.172818855E0	1.316052526E-1	1.507478207E-1	9.583254814E0	9.585343900E0
1.174014844E0	1.339980662E-1	1.627119333E-1	9.566504478E0	9.568826396E0
1.175210834E0	1.339980662E-1	1.770688742E-1	9.554540634E0	9.557120675E0
1.176406824E0	1.363908947E-1	1.962114573E-1	9.552147865E0	9.555136328E0
1.177602761E0	1.411765367E-1	2.057827413E-1	9.568898201E0	9.572151803E0
1.178798751E0	1.483550072E-1	2.081755698E-1	9.602396965E0	9.605798965E0
1.179994740E0	1.555334777E-1	2.177468538E-1	9.643074989E0	9.646787009E0
1.181190730E0	1.579262912E-1	2.368894368E-1	9.686145782E0	9.690329068E0
1.182386667E0	1.603191197E-1	2.488535494E-1	9.722038269E0	9.726544012E0
1.183582657E0	1.651047617E-1	2.488535494E-1	9.760323524E0	9.764891345E0
1.184778647E0	1.794617027E-1	2.464607358E-1	9.801001549E0	9.805742234E0
1.185974636E0	1.890329868E-1	2.536391914E-1	9.839286804E0	9.844370530E0
1.187170574E0	1.866401732E-1	2.608176768E-1	9.868000984E0	9.873211425E0
1.188366563E0	1.890329868E-1	2.703889608E-1	9.870393753E0	9.875905857E0
1.189562553E0	1.986042857E-1	2.775674164E-1	9.853643417E0	9.859552522E0
1.190758542E0	1.962114573E-1	2.775674164E-1	9.827322960E0	9.833199844E0
1.191954532E0	1.914258152E-1	2.823530734E-1	9.798608780E0	9.804544922E0
1.193150469E0	1.914258152E-1	2.871387303E-1	9.798608780E0	9.804683907E0
1.194346459E0	1.890329868E-1	2.775674164E-1	9.820143700E0	9.825884155E0
1.195542449E0	1.866401732E-1	2.584248483E-1	9.836894035E0	9.842057824E0
1.196738438E0	1.818545163E-1	2.392822653E-1	9.848857880E0	9.853442475E0
1.197934376E0	1.770688742E-1	2.225325108E-1	9.872786522E0	9.876881482E0
1.199130365E0	1.746760458E-1	1.890329868E-1	9.913464546E0	9.916805156E0
1.200326355E0	1.674975902E-1	1.531406492E-1	9.961320877E0	9.963905917E0
1.201522344E0	1.674975902E-1	1.268195957E-1	1.001396275E1	1.001616636E1
1.202718334E0	1.627119333E-1	1.172483116E-1	1.005942631E1	1.006142535E1
1.203914272E0	1.507478207E-1	1.100698411E-1	1.009771156E1	1.009943657E1
1.205110261E0	1.483550072E-1	8.614161611E-2	1.011685371E1	1.011830809E1
1.206306251E0	1.531406492E-1	5.982056633E-2	1.012881851E1	1.013015276E1
1.207502240E0	1.627119333E-1	3.828516230E-2	1.012642574E1	1.012780525E1
1.208698178E0	1.531406492E-1	2.871387079E-2	1.009771156E1	1.009891357E1
1.209894167E0	1.339980662E-1	2.153540403E-2	1.005224800E1	1.005316414E1
1.211090157E0	1.196411327E-1	4.785645287E-3	9.997213364E0	9.997930383E0
1.212286147E0	1.052841991E-1	-1.196411345E-2	9.954142570E0	9.954706536E0
1.213482136E0	9.571290761E-2	-2.871387079E-2	9.930213928E0	9.930716697E0
1.214678074E0	9.092725813E-2	-3.828516230E-2	9.925428391E0	9.925918711E0
1.215874063E0	7.896314561E-2	-4.307080805E-2	9.923035622E0	9.923443264E0
1.217070053E0	6.699903309E-2	-4.546362907E-2	9.911071777E0	9.911402504E0
1.218266042E0	6.699903309E-2	-5.742774159E-2	9.896714211E0	9.897107607E0
1.219461980E0	7.417750359E-2	-8.374879509E-2	9.906285286E0	9.906916994E0
1.220657969E0	8.374879509E-2	-1.100698411E-1	9.925428391E0	9.926391991E0
1.221853959E0	8.853443712E-2	-1.172483116E-1	9.942177773E0	9.943263266E0
1.223049949E0	9.092725813E-2	-1.100698411E-1	9.961320877E0	9.962343939E0
1.224245938E0	9.332008660E-2	-1.052841991E-1	9.968499184E0	9.969491932E0
1.225441876E0	8.374879509E-2	-1.100698411E-1	9.961320877E0	9.962281006E0
1.226637865E0	7.657032460E-2	-1.052841991E-1	9.949356079E0	9.950207745E0
1.227833855E0	7.896314561E-2	-9.092725813E-2	9.920642853E0	9.921373774E0
1.229029844E0	7.896314561E-2	-7.657032460E-2	9.877572060E0	9.878184448E0
1.230225782E0	7.178468257E-2	-7.417750359E-2	9.815358162E0	9.815900936E0
1.231421772E0	6.460621208E-2	-7.657032460E-2	9.750752449E0	9.751267113E0
1.232617761E0	5.742774159E-2	-7.657032460E-2	9.705288887E0	9.705760833E0
1.233813751E0	5.264209956E-2	-6.221338734E-2	9.674181938E0	9.674525201E0
1.235009688E0	5.264209956E-2	-3.110669367E-2	9.645467758E0	9.645661568E0
1.236205678E0	5.503492057E-2	-1.674975827E-2	9.626325607E0	9.626497499E0
1.237401667E0	6.460621208E-2	-1.435693540E-2	9.616754532E0	9.616982261E0
1.238597657E0	7.896314561E-2	-1.196411345E-2	9.619147301E0	9.619478838E0
1.239793647E0	8.374879509E-2	0.000000000E0	9.633503914E0	9.633867942E0
1.240989584E0	9.092725813E-2	2.392822690E-2	9.652647018E0	9.653104930E0
1.242185574E0	1.124626622E-1	3.589234129E-2	9.674181938E0	9.674902185E0
1.243381563E0	1.172483116E-1	4.307080805E-2	9.702896118E0	9.703700085E0
1.244577553E0	1.124626622E-1	5.742774159E-2	9.724431038E0	9.725250887E0
1.245773490E0	1.148554832E-1	7.896314561E-2	9.729216576E0	9.730214907E0
1.246969480E0	1.100698411E-1	1.028913707E-1	9.736394882E0	9.737560645E0
1.248165469E0	1.148554832E-1	1.172483116E-1	9.738788605E0	9.740171581E0
1.249361459E0	1.292124242E-1	1.316052526E-1	9.731609344E0	9.733356884E0
1.250557449E0	1.244267747E-1	1.459621787E-1	9.710074425E0	9.711968509E0
1.251753386E0	1.100698411E-1	1.603191197E-1	9.695717812E0	9.697667837E0
1.252949376E0	1.076770201E-1	1.674975902E-1	9.695717812E0	9.697762302E0
1.254145365E0	1.172483116E-1	1.698904037E-1	9.700503349E0	9.702699374E0
1.255341355E0	1.268195957E-1	1.818545163E-1	9.712467194E0	9.714997337E0
1.256537292E0	1.363908947E-1	1.962114573E-1	9.729216576E0	9.732150666E0
1.257733282E0	1.411765367E-1	2.033899277E-1	9.750752449E0	9.753895201E0
1.258929272E0	1.435693651E-1	2.009970993E-1	9.774680138E0	9.777800560E0
1.260125261E0	1.483550072E-1	2.081755698E-1	9.810572624E0	9.813902460E0
1.261321199E0	1.627119333E-1	2.249253243E-1	9.846465111E0	9.850377747E0
1.262517188E0	1.674975902E-1	2.416750938E-1	9.872786522E0	9.877164370E0
1.263713178E0	1.603191197E-1	2.560320199E-1	9.887143135E0	9.891756871E0
1.264909167E0	1.627119333E-1	2.536391914E-1	9.896714211E0	9.901300934E0
1.266105157E0	1.627119333E-1	2.440679073E-1	9.901499748E0	9.905843810E0
1.267301094E0	1.627119333E-1	2.488535494E-1	9.894321442E0	9.898787807E0
1.268497084E0	1.698904037E-1	2.512463629E-1	9.877572060E0	9.882227344E0
1.269693074E0	1.698904037E-1	2.512463629E-1	9.863214493E0	9.867876550E0
1.270889063E0	1.603191197E-1	2.392822653E-1	9.865608215E0	9.869811735E0
1.272085053E0	1.627119333E-1	2.177468538E-1	9.860821724E0	9.864567600E0
1.273280990E0	1.651047617E-1	1.962114573E-1	9.848857880E0	9.852195697E0
1.274476980E0	1.531406492E-1	1.890329868E-1	9.832108498E0	9.835117846E0
1.275672969E0	1.435693651E-1	1.818545163E-1	9.824930191E0	9.827661802E0
1.276868959E0	1.435693651E-1	1.651047617E-1	9.829715729E0	9.832150480E0
1.278064897E0	1.531406492E-1	1.483550072E-1	9.856036186E0	9.858342182E0
1.279260886E0	1.483550072E-1	1.292124242E-1	9.899106979E0	9.901061764E0
1.280456876E0	1.363908947E-1	1.148554832E-1	9.939785004E0	9.941384218E0
1.281652865E0	1.339980662E-1	1.004985496E-1	9.958928108E0	9.960336566E0
1.282848803E0	1.339980662E-1	1.004985496E-1	9.958928108E0	9.960336566E0
1.284044792E0	1.292124242E-1	9.092725813E-2	9.944570541E0	9.945825600E0
1.285240782E0	1.244267747E-1	6.460621208E-2	9.932606697E0	9.933596115E0
1.286436772E0	1.172483116E-1	4.546362907E-2	9.932606697E0	9.933402736E0
1.287632761E0	9.571290761E-2	3.110669367E-2	9.923035622E0	9.923545966E0
1.288828699E0	8.853443712E-2	1.435693540E-2	9.925428391E0	9.925833628E0
1.290024688E0	8.374879509E-2	2.392822644E-3	9.927821159E0	9.928174684E0
1.291220678E0	8.374879509E-2	0.000000000E0	9.911071777E0	9.911425611E0
1.292416667E0	8.614161611E-2	-4.785645287E-3	9.891928673E0	9.892304896E0
1.293612605E0	8.614161611E-2	-1.196411345E-2	9.884750366E0	9.885132944E0
1.294808594E0	8.614161611E-2	-1.674975827E-2	9.887143135E0	9.887532569E0
1.296004584E0	8.135596663E-2	-2.632104978E-2	9.894321442E0	9.894690919E0
1.297200574E0	6.939185411E-2	-3.349951655E-2	9.891928673E0	9.892228784E0
1.298396563E0	5.264209956E-2	-4.307080805E-2	9.889535904E0	9.889769799E0
1.299592501E0	5.264209956E-2	-5.024927482E-2	9.887143135E0	9.887410963E0
1.300788490E0	5.742774159E-2	-5.024927482E-2	9.894321442E0	9.894615694E0
1.301984480E0	5.742774159E-2	-4.307080805E-2	9.899106979E0	9.899367254E0
1.303180469E0	5.503492057E-2	-3.828516230E-2	9.887143135E0	9.887370427E0
1.304376407E0	5.742774159E-2	-3.828516230E-2	9.868000984E0	9.868242352E0
1.305572397E0	5.982056633E-2	-4.546362907E-2	9.844072342E0	9.844359081E0
1.306768386E0	5.264209956E-2	-4.546362907E-2	9.817750931E0	9.817997325E0
1.307964376E0	4.546362907E-2	-4.067798331E-2	9.791430473E0	9.791620517E0
1.309160313E0	3.828516230E-2	-3.589234129E-2	9.767501831E0	9.767642808E0
1.310356303E0	3.349951655E-2	-2.153540403E-2	9.748359680E0	9.748441026E0
1.311552292E0	3.589234129E-2	-9.571290575E-3	9.741181374E0	9.741252200E0
1.312748282E0	4.546362907E-2	-4.785645287E-3	9.736394882E0	9.736502203E0
1.313944272E0	5.024927482E-2	9.571290575E-3	9.731609344E0	9.731743782E0
1.315140209E0	5.742774159E-2	1.914258115E-2	9.736394882E0	9.736583060E0
1.316336199E0	6.221338734E-2	1.674975827E-2	9.745966911E0	9.746179872E0
1.317532188E0	5.982056633E-2	2.392822690E-2	9.748359680E0	9.748572589E0
1.318728178E0	5.742774159E-2	4.067798331E-2	9.748359680E0	9.748613701E0
1.319924167E0	6.939185411E-2	6.699903309E-2	9.748359680E0	9.748836882E0
1.321120105E0	9.332008660E-2	8.135596663E-2	9.762716293E0	9.763501260E0
1.322316094E0	1.004985496E-1	8.614161611E-2	9.774680138E0	9.775576307E0
1.323512084E0	1.076770201E-1	9.092725813E-2	9.762716293E0	9.763733483E0
1.324708074E0	1.124626622E-1	1.052841991E-1	9.762716293E0	9.763931689E0
1.325904011E0	1.028913707E-1	1.172483116E-1	9.779465675E0	9.780709724E0
1.327100001E0	9.332008660E-2	1.363908947E-1	9.791430473E0	9.792825018E0
1.328295990E0	9.332008660E-2	1.483550072E-1	9.789037704E0	9.790606571E0
1.329491980E0	9.092725813E-2	1.531406492E-1	9.786644936E0	9.788265368E0
1.330687917E0	9.571290761E-2	1.579262912E-1	9.793823242E0	9.795564066E0
1.331883907E0	1.076770201E-1	1.627119333E-1	9.791430473E0	9.793374302E0
1.333079897E0	1.148554832E-1	1.698904037E-1	9.793823242E0	9.795969999E0
1.334275886E0	1.196411327E-1	1.842473447E-1	9.803394318E0	9.805855456E0
1.335471876E0	1.196411327E-1	1.938186288E-1	9.801001549E0	9.803647843E0
1.336667813E0	1.172483116E-1	1.962114573E-1	9.810572624E0	9.813235008E0
1.337863803E0	1.316052526E-1	1.962114573E-1	9.824930191E0	9.827770456E0
1.339059792E0	1.483550072E-1	2.033899277E-1	9.827322960E0	9.830546945E0
1.340255782E0	1.579262912E-1	2.129612118E-1	9.834501266E0	9.838074423E0
1.341451719E0	1.531406492E-1	2.129612118E-1	9.836894035E0	9.840390683E0
1.342647709E0	1.339980662E-1	2.153540403E-1	9.829715729E0	9.832987550E0
1.343843699E0	1.316052526E-1	2.057827413E-1	9.822537422E0	9.825574176E0
1.345039688E0	1.435693651E-1	1.842473447E-1	9.815358162E0	9.818137048E0
1.346235678E0	1.387837082E-1	1.794617027E-1	9.812965393E0	9.815587462E0
1.347431615E0	1.268195957E-1	1.818545163E-1	9.810572624E0	9.813077473E0
1.348627605E0	1.220339537E-1	1.674975902E-1	9.805787086E0	9.807976759E0
1.349823594E0	1.244267747E-1	1.435693651E-1	9.815358162E0	9.817196648E0
1.351019584E0	1.220339537E-1	1.220339537E-1	9.817750931E0	9.819267687E0
1.352215522E0	1.244267747E-1	1.196411327E-1	9.815358162E0	9.816875871E0
1.353411511E0	1.220339537E-1	1.220339537E-1	9.824930191E0	9.826445839E0
1.354607501E0	1.244267747E-1	1.220339537E-1	9.846465111E0	9.848007387E0
1.355803490E0	1.339980662E-1	1.148554832E-1	9.868000984E0	9.869579053E0
1.356999480E0	1.316052526E-1	1.028913707E-1	9.870393753E0	9.871807302E0
1.358195417E0	1.220339537E-1	9.332008660E-2	9.875179291E0	9.876374180E0
1.359391407E0	1.028913707E-1	8.614161611E-2	9.889535904E0	9.890446269E0
1.360587397E0	1.052841991E-1	7.657032460E-2	9.889535904E0	9.890392721E0
1.361783386E0	1.100698411E-1	5.742774159E-2	9.887143135E0	9.887922567E0
1.362979376E0	1.028913707E-1	3.828516230E-2	9.870393753E0	9.871004266E0
1.364175313E0	9.332008660E-2	3.828516230E-2	9.844072342E0	9.844589106E0
1.365371303E0	8.374879509E-2	2.871387079E-2	9.836894035E0	9.837292443E0
1.366567292E0	8.614161611E-2	4.785645287E-3	9.851250648E0	9.851628425E0
1.367763282E0	9.092725813E-2	-9.571290575E-3	9.868000984E0	9.868424535E0
1.368959219E0	8.135596663E-2	-1.435693540E-2	9.865608215E0	9.865954104E0
1.370155209E0	7.417750359E-2	-7.178467698E-3	9.863214493E0	9.863496031E0
1.371351199E0	6.939185411E-2	-9.571290575E-3	9.870393753E0	9.870642313E0
1.372547188E0	5.982056633E-2	-1.435693540E-2	9.872786522E0	9.872978189E0
1.373743126E0	5.742774159E-2	-2.392822690E-2	9.875179291E0	9.875375260E0
1.374939115E0	6.460621208E-2	-3.110669367E-2	9.887143135E0	9.887403146E0
1.376135105E0	7.178468257E-2	-3.349951655E-2	9.894321442E0	9.894638551E0
1.377331094E0	7.896314561E-2	-3.589234129E-2	9.877572060E0	9.877952887E0
1.378527084E0	7.896314561E-2	-4.067798331E-2	9.860821724E0	9.861221778E0
1.379723022E0	6.939185411E-2	-3.828516230E-2	9.856036186E0	9.856354817E0
1.380919011E0	7.178468257E-2	-3.349951655E-2	9.844072342E0	9.844391070E0
1.382115001E0	7.657032460E-2	-3.349951655E-2	9.829715729E0	9.830071034E0
1.383310990E0	8.135596663E-2	-2.632104978E-2	9.820143700E0	9.820515968E0
1.384506928E0	9.571290761E-2	-1.674975827E-2	9.810572624E0	9.811053803E0
1.385702917E0	1.124626622E-1	-2.153540403E-2	9.801001549E0	9.801670418E0
1.386898907E0	1.196411327E-1	-3.349951655E-2	9.796216011E0	9.797003846E0
1.388094897E0	1.172483116E-1	-3.110669367E-2	9.789037704E0	9.789789271E0
1.389290886E0	1.196411327E-1	-1.914258115E-2	9.784252167E0	9.785002346E0
1.390486824E0	1.244267747E-1	-1.674975827E-2	9.784252167E0	9.785057641E0
1.391682813E0	1.220339537E-1	-1.196411345E-2	9.791430473E0	9.792198228E0
1.392878803E0	1.244267747E-1	-1.196411345E-2	9.803394318E0	9.804191211E0
1.394074792E0	1.292124242E-1	-7.178467698E-3	9.820143700E0	9.820996368E0
1.395270730E0	1.339980662E-1	7.178467698E-3	9.829715729E0	9.830631634E0
1.396466719E0	1.268195957E-1	2.392822690E-2	9.832108498E0	9.832955470E0
1.397662709E0	1.172483116E-1	2.871387079E-2	9.829715729E0	9.830456905E0
1.398858699E0	1.220339537E-1	3.589234129E-2	9.820143700E0	9.820967510E0
1.400054688E0	1.196411327E-1	4.785645381E-2	9.805787086E0	9.806633705E0
1.401250626E0	1.148554832E-1	4.546362907E-2	9.798608780E0	9.799387366E0
1.402446615E0	1.148554832E-1	5.264209956E-2	9.796216011E0	9.797030729E0
1.403642605E0	1.292124242E-1	6.699903309E-2	9.796216011E0	9.797297222E0
1.404839376E0	1.339980662E-1	7.417750359E-2	9.801001549E0	9.802198179E0
1.406034532E0	1.244267747E-1	8.135596663E-2	9.803394318E0	9.804521455E0
1.407230522E0	1.220339537E-1	9.332008660E-2	9.815358162E0	9.816560333E0
1.408426511E0	1.268195957E-1	1.028913707E-1	9.832108498E0	9.833464667E0
1.409622501E0	1.339980662E-1	1.172483116E-1	9.848857880E0	9.850467206E0
1.410818490E0	1.363908947E-1	1.292124242E-1	9.856036186E0	9.857826719E0
1.412014428E0	1.339980662E-1	1.339980662E-1	9.851250648E0	9.853073140E0
1.413210417E0	1.292124242E-1	1.411765367E-1	9.851250648E0	9.853109459E0
1.414406407E0	1.268195957E-1	1.507478207E-1	9.846465111E0	9.848435576E0
1.415602397E0	1.244267747E-1	1.531406492E-1	9.834501266E0	9.836480531E0
1.416798334E0	1.268195957E-1	1.507478207E-1	9.815358162E0	9.817334871E0
1.417994324E0	1.316052526E-1	1.435693651E-1	9.803394318E0	9.805328768E0
1.419190313E0	1.411765367E-1	1.339980662E-1	9.796216011E0	9.798149541E0
1.420386303E0	1.531406492E-1	1.220339537E-1	9.793823242E0	9.795780625E0
1.421582240E0	1.627119333E-1	1.100698411E-1	9.805787086E0	9.807754632E0
1.422778230E0	1.651047617E-1	1.124626622E-1	9.824930191E0	9.826960908E0
1.423974219E0	1.698904037E-1	1.124626622E-1	9.841679573E0	9.843788266E0
1.425170209E0	1.722832322E-1	1.148554832E-1	9.851250648E0	9.853426441E0
1.426366199E0	1.627119333E-1	1.196411327E-1	9.853643417E0	9.855712951E0
1.427562136E0	1.674975902E-1	1.052841991E-1	9.841679573E0	9.843667864E0
1.428758126E0	1.722832322E-1	9.092725813E-2	9.824930191E0	9.826861276E0
1.429954115E0	1.698904037E-1	9.571290761E-2	9.805787086E0	9.807725735E0
1.431150105E0	1.603191197E-1	1.028913707E-1	9.789037704E0	9.790891075E0
1.432346042E0	1.435693651E-1	1.004985496E-1	9.781859398E0	9.783429123E0
1.433542032E0	1.292124242E-1	9.092725813E-2	9.779465675E0	9.780741920E0
1.434738022E0	1.268195957E-1	7.417750359E-2	9.786644936E0	9.787747678E0
1.435934011E0	1.292124242E-1	6.460621208E-2	9.803394318E0	9.804458678E0
1.437130001E0	1.339980662E-1	6.221338734E-2	9.820143700E0	9.821254923E0
1.438325938E0	1.435693651E-1	5.264209956E-2	9.841679573E0	9.842867477E0
1.439521928E0	1.387837082E-1	3.589234129E-2	9.853643417E0	9.854686082E0
1.440717917E0	1.292124242E-1	2.392822690E-2	9.856036186E0	9.856912180E0
1.441913907E0	1.196411327E-1	2.392822690E-2	9.851250648E0	9.852006187E0
1.443109897E0	1.100698411E-1	1.674975827E-2	9.848857880E0	9.849487167E0
1.444305834E0	1.076770201E-1	9.571290575E-3	9.858428955E0	9.859021626E0
1.445501824E0	1.148554832E-1	1.196411345E-2	9.870393753E0	9.871069231E0
1.446697813E0	1.172483116E-1	1.435693540E-2	9.870393753E0	9.871100553E0
1.447893803E0	1.004985496E-1	9.571290575E-3	9.858428955E0	9.858945838E0
1.449089740E0	1.004985496E-1	-2.392822644E-3	9.851250648E0	9.851763549E0
1.450285730E0	1.052841991E-1	-2.392822644E-3	9.851250648E0	9.851813530E0
1.451481719E0	9.571290761E-2	-2.392822644E-3	9.851250648E0	9.851715892E0
1.452677709E0	8.614161611E-2	4.785645287E-3	9.851250648E0	9.851628425E0
1.453873647E0	8.374879509E-2	7.178467698E-3	9.848857880E0	9.849216564E0
1.455069636E0	7.896314561E-2	-7.178467698E-3	9.844072342E0	9.844391651E0
1.456265626E0	7.417750359E-2	-1.196411345E-2	9.836894035E0	9.837180984E0
1.457461615E0	8.135596663E-2	-9.571290575E-3	9.836894035E0	9.837235113E0
1.458657605E0	8.374879509E-2	-9.571290575E-3	9.844072342E0	9.844433236E0
1.459853542E0	9.571290761E-2	-1.196411345E-2	9.844072342E0	9.844544904E0
1.461049532E0	1.076770201E-1	-7.178467698E-3	9.839286804E0	9.839878591E0
1.462245522E0	1.148554832E-1	0.000000000E0	9.829715729E0	9.830386721E0
1.463441511E0	1.244267747E-1	0.000000000E0	9.834501266E0	9.835288363E0
1.464637449E0	1.268195957E-1	9.571290575E-3	9.853643417E0	9.854464136E0
1.465833438E0	1.339980662E-1	1.674975827E-2	9.868000984E0	9.868924939E0
1.467029428E0	1.316052526E-1	1.914258115E-2	9.870393753E0	9.871289643E0
1.468225417E0	1.244267747E-1	2.392822690E-2	9.863214493E0	9.864028321E0
1.469421355E0	1.196411327E-1	3.828516230E-2	9.848857880E0	9.849658943E0
1.470617344E0	1.220339537E-1	5.024927482E-2	9.829715729E0	9.830601639E0
1.471813334E0	1.292124242E-1	5.503492057E-2	9.810572624E0	9.811577850E0
1.473009324E0	1.316052526E-1	6.939185411E-2	9.805787086E0	9.806915701E0
1.474205313E0	1.196411327E-1	7.178468257E-2	9.805787086E0	9.806779666E0
1.475401251E0	1.196411327E-1	6.221338734E-2	9.808179855E0	9.809106819E0
1.476597240E0	1.292124242E-1	8.135596663E-2	9.820143700E0	9.821330711E0
1.477793230E0	1.316052526E-1	1.028913707E-1	9.836894035E0	9.838312398E0
1.478989219E0	1.363908947E-1	1.028913707E-1	9.851250648E0	9.852732030E0
1.480185157E0	1.387837082E-1	1.052841991E-1	9.858428955E0	9.859967908E0
1.481381147E0	1.292124242E-1	1.100698411E-1	9.868000984E0	9.869460707E0
1.482577136E0	1.220339537E-1	1.196411327E-1	9.868000984E0	9.869480721E0
1.483773126E0	1.244267747E-1	1.292124242E-1	9.870393753E0	9.872023638E0
1.484969115E0	1.244267747E-1	1.316052526E-1	9.884750366E0	9.886409448E0
1.486165053E0	1.148554832E-1	1.387837082E-1	9.891928673E0	9.893568899E0
1.487361042E0	1.124626622E-1	1.339980662E-1	9.884750366E0	9.886298252E0
1.488557032E0	1.172483116E-1	1.339980662E-1	9.858428955E0	9.860036720E0
1.489753022E0	1.268195957E-1	1.363908947E-1	9.824930191E0	9.826695220E0
1.490948959E0	1.292124242E-1	1.316052526E-1	9.796216011E0	9.797952027E0
1.492144949E0	1.292124242E-1	1.220339537E-1	9.777072906E0	9.778688192E0
1.493340938E0	1.316052526E-1	1.196411327E-1	9.777072906E0	9.778690534E0
1.494536928E0	1.411765367E-1	1.220339537E-1	9.793823242E0	9.795600890E0
1.495732917E0	1.483550072E-1	1.196411327E-1	9.810572624E0	9.812423677E0
1.496928855E0	1.483550072E-1	1.220339537E-1	9.820143700E0	9.822022387E0
1.498124844E0	1.411765367E-1	1.244267747E-1	9.815358162E0	9.817161946E0
1.499320834E0	1.363908947E-1	1.172483116E-1	9.815358162E0	9.817005933E0
1.500516824E0	1.363908947E-1	1.076770201E-1	9.820143700E0	9.821681073E0
1.501712761E0	1.387837082E-1	1.028913707E-1	9.812965393E0	9.814486097E0
1.502908751E0	1.411765367E-1	9.332008660E-2	9.805787086E0	9.807247312E0
1.504104740E0	1.387837082E-1	8.135596663E-2	9.798608780E0	9.799929272E0
1.505300730E0	1.268195957E-1	7.896314561E-2	9.786644936E0	9.787785116E0
1.506496719E0	1.268195957E-1	9.092725813E-2	9.777072906E0	9.778318137E0
1.507692657E0	1.387837082E-1	9.332008660E-2	9.765109062E0	9.766541074E0
1.508888647E0	1.531406492E-1	9.571290761E-2	9.750752449E0	9.752424639E0
1.510084636E0	1.579262912E-1	9.092725813E-2	9.753145218E0	9.754847519E0
1.511280626E0	1.507478207E-1	7.896314561E-2	9.774680138E0	9.776161408E0
1.512476563E0	1.411765367E-1	7.417750359E-2	9.803394318E0	9.804691391E0
1.513672553E0	1.387837082E-1	6.939185411E-2	9.817750931E0	9.818977008E0
1.514868542E0	1.387837082E-1	6.699903309E-2	9.820143700E0	9.821352864E0
1.516064532E0	1.387837082E-1	5.503492057E-2	9.817750931E0	9.818886042E0
1.517260522E0	1.387837082E-1	4.785645381E-2	9.815358162E0	9.816455929E0
1.518456459E0	1.292124242E-1	5.742774159E-2	9.808179855E0	9.809199043E0
1.519652449E0	1.316052526E-1	5.982056633E-2	9.793823242E0	9.794890104E0
1.520848438E0	1.411765367E-1	5.503492057E-2	9.786644936E0	9.787817875E0
1.522044428E0	1.292124242E-1	4.307080805E-2	9.786644936E0	9.787592658E0
1.523240365E0	1.268195957E-1	3.349951655E-2	9.784252167E0	9.785131368E0
1.524436355E0	1.316052526E-1	3.110669367E-2	9.781859398E0	9.782794123E0
1.525632344E0	1.411765367E-1	3.589234129E-2	9.779465675E0	9.780550494E0
1.526828334E0	1.603191197E-1	3.110669367E-2	9.777072906E0	9.778436709E0
1.528024272E0	1.674975902E-1	1.674975827E-2	9.781859398E0	9.783307686E0
1.529220261E0	1.746760458E-1	0.000000000E0	9.786644936E0	9.788203656E0
1.530416251E0	1.794617027E-1	-4.785645287E-3	9.786644936E0	9.788291398E0
1.531612240E0	1.722832322E-1	-4.785645287E-3	9.781859398E0	9.783377622E0
1.532808230E0	1.746760458E-1	-7.178467698E-3	9.786644936E0	9.788206289E0
1.534004167E0	1.914258152E-1	-1.435693540E-2	9.803394318E0	9.805273587E0
1.535200157E0	2.057827413E-1	-1.674975827E-2	9.832108498E0	9.834276008E0
1.536396147E0	2.105683982E-1	-1.435693540E-2	9.863214493E0	9.865472381E0
1.537592136E0	2.057827413E-1	-1.674975827E-2	9.896714211E0	9.898867574E0
1.538788126E0	2.033899277E-1	-1.914258115E-2	9.925428391E0	9.927530541E0
1.539984063E0	2.081755698E-1	-2.153540403E-2	9.944570541E0	9.946772547E0
1.541180053E0	1.986042857E-1	-1.435693540E-2	9.966106415E0	9.968095448E0
1.542376042E0	1.914258152E-1	9.571290575E-3	9.973284721E0	9.975126244E0
1.543572032E0	1.842473447E-1	2.392822690E-2	9.961320877E0	9.963053410E0
1.544767969E0	1.722832322E-1	9.571290575E-3	9.942177773E0	9.943674974E0
1.545963959E0	1.674975902E-1	1.196411345E-2	9.915857315E0	9.917279106E0
1.547159949E0	1.603191197E-1	2.632104978E-2	9.882357597E0	9.883692969E0
1.548355938E0	1.627119333E-1	3.589234129E-2	9.856036186E0	9.857444534E0
1.549551876E0	1.579262912E-1	4.785645381E-2	9.839286804E0	9.840670494E0
1.550747865E0	1.363908947E-1	4.546362907E-2	9.834501266E0	9.835552073E0
1.551943855E0	1.244267747E-1	5.024927482E-2	9.846465111E0	9.847379458E0
1.553139844E0	1.196411327E-1	6.699903309E-2	9.863214493E0	9.864167628E0
1.554335834E0	1.244267747E-1	7.417750359E-2	9.877572060E0	9.878634223E0
1.555531772E0	1.268195957E-1	7.657032460E-2	9.903892517E0	9.905000415E0
1.556727761E0	1.268195957E-1	8.853443712E-2	9.932606697E0	9.933810817E0
1.557923751E0	1.244267747E-1	9.810572863E-2	9.956535339E0	9.957796077E0
1.559119740E0	1.268195957E-1	9.332008660E-2	9.963713646E0	9.964957675E0
1.560315678E0	1.292124242E-1	9.332008660E-2	9.954142570E0	9.955418565E0
1.561511667E0	1.292124242E-1	9.810572863E-2	9.934999466E0	9.936324017E0
1.562707657E0	1.339980662E-1	1.028913707E-1	9.915857315E0	9.917296426E0
1.563903647E0	1.268195957E-1	1.052841991E-1	9.887143135E0	9.888516944E0
1.565099636E0	1.244267747E-1	1.100698411E-1	9.853643417E0	9.855043683E0
1.566295574E0	1.316052526E-1	1.100698411E-1	9.834501266E0	9.835997686E0
1.567491563E0	1.292124242E-1	1.124626622E-1	9.824930191E0	9.826423406E0
1.568687553E0	1.268195957E-1	1.196411327E-1	9.820143700E0	9.821691275E0
1.569883542E0	1.172483116E-1	1.316052526E-1	9.810572624E0	9.812155845E0
1.571079480E0	1.124626622E-1	1.339980662E-1	9.803394318E0	9.804955047E0
1.572275469E0	1.076770201E-1	1.268195957E-1	9.805787086E0	9.807198271E0
1.573471459E0	1.004985496E-1	1.244267747E-1	9.812965393E0	9.814268785E0
1.574667449E0	9.571290761E-2	1.220339537E-1	9.817750931E0	9.818975842E0
1.575863438E0	9.571290761E-2	1.196411327E-1	9.812965393E0	9.814161440E0
1.577059376E0	1.148554832E-1	1.220339537E-1	9.810572624E0	9.812003836E0
1.578255365E0	1.268195957E-1	1.220339537E-1	9.808179855E0	9.809758793E0
1.579451355E0	1.268195957E-1	1.244267747E-1	9.803394318E0	9.805004099E0
1.580647344E0	1.220339537E-1	1.268195957E-1	9.784252167E0	9.785834965E0
1.581843282E0	1.124626622E-1	1.268195957E-1	9.760323524E0	9.761795243E0
1.583039272E0	1.052841991E-1	1.363908947E-1	9.748359680E0	9.749882240E0
1.584235261E0	8.614161611E-2	1.387837082E-1	9.741181374E0	9.742550788E0
1.585431251E0	6.699903309E-2	1.292124242E-1	9.736394882E0	9.737482735E0
1.586627240E0	5.982056633E-2	1.196411327E-1	9.731609344E0	9.732528599E0
1.587823178E0	5.742774159E-2	1.172483116E-1	9.736394882E0	9.737270173E0
1.589019167E0	5.024927482E-2	1.244267747E-1	9.741181374E0	9.742105602E0
1.590215157E0	4.307080805E-2	1.268195957E-1	9.755537987E0	9.756457334E0
1.591411147E0	4.067798331E-2	1.172483116E-1	9.777072906E0	9.777860527E0
1.592607084E0	4.067798331E-2	1.028913707E-1	9.789037704E0	9.789662942E0
1.593803074E0	4.067798331E-2	1.004985496E-1	9.796216011E0	9.796815952E0
1.594999063E0	4.067798331E-2	1.124626622E-1	9.805787086E0	9.806516351E0
1.596195053E0	3.349951655E-2	1.172483116E-1	9.808179855E0	9.808937835E0
1.597391042E0	2.871387079E-2	1.148554832E-1	9.808179855E0	9.808894349E0
1.598586980E0	2.871387079E-2	1.148554832E-1	9.801001549E0	9.801716565E0
1.599782969E0	2.871387079E-2	1.124626622E-1	9.789037704E0	9.789725814E0
1.600978959E0	3.589234129E-2	1.052841991E-1	9.772287369E0	9.772920415E0
1.602174949E0	3.828516230E-2	1.004985496E-1	9.757930756E0	9.758523369E0
1.603370886E0	2.632104978E-2	1.028913707E-1	9.750752449E0	9.751330820E0
1.604566876E0	1.435693540E-2	1.076770201E-1	9.760323524E0	9.760928018E0
1.605762865E0	1.196411345E-2	1.052841991E-1	9.786644936E0	9.787218553E0
1.606958855E0	7.178467698E-3	1.052841991E-1	9.812965393E0	9.813532804E0
1.608154792E0	0.000000000E0	1.004985496E-1	9.839286804E0	9.839800037E0
1.609350782E0	7.178467698E-3	9.571290761E-2	9.851250648E0	9.851718217E0
1.610546772E0	2.392822690E-2	9.571290761E-2	9.853643417E0	9.854137310E0
1.611742761E0	2.871387079E-2	9.571290761E-2	9.851250648E0	9.851757447E0
1.612938751E0	2.632104978E-2	9.092725813E-2	9.846465111E0	9.846920115E0
1.614134688E0	3.110669367E-2	9.332008660E-2	9.844072342E0	9.844563806E0
1.615330678E0	2.871387079E-2	9.810572863E-2	9.846465111E0	9.846995704E0
1.616526667E0	1.914258115E-2	1.028913707E-1	9.856036186E0	9.856591824E0
1.617722657E0	2.871387079E-2	1.004985496E-1	9.851250648E0	9.851805103E0
1.618918647E0	4.067798331E-2	8.853443712E-2	9.832108498E0	9.832591243E0
1.620114584E0	3.589234129E-2	9.332008660E-2	9.829715729E0	9.830224220E0
1.621310574E0	3.349951655E-2	1.124626622E-1	9.846465111E0	9.847164325E0
1.622506563E0	3.349951655E-2	1.172483116E-1	9.860821724E0	9.861575658E0
1.623702553E0	2.392822690E-2	1.196411327E-1	9.872786522E0	9.873540412E0
1.624898490E0	2.632104978E-2	1.196411327E-1	9.879964828E0	9.880724255E0
1.626094480E0	3.828516230E-2	1.052841991E-1	9.891928673E0	9.892563034E0
1.627290469E0	3.828516230E-2	9.810572863E-2	9.901499748E0	9.902059773E0
1.628486459E0	3.589234129E-2	9.332008660E-2	9.901499748E0	9.902004553E0
1.629682397E0	4.067798331E-2	8.614161611E-2	9.903892517E0	9.904350664E0
1.630878386E0	5.024927482E-2	7.657032460E-2	9.901499748E0	9.901923312E0
1.632074376E0	4.546362907E-2	7.417750359E-2	9.884750366E0	9.885133234E0
1.633270365E0	4.785645381E-2	8.614161611E-2	9.875179291E0	9.875670946E0
1.634466355E0	5.982056633E-2	9.092725813E-2	9.870393753E0	9.870993826E0
1.635662292E0	5.742774159E-2	8.853443712E-2	9.870393753E0	9.870957863E0
1.636858282E0	5.024927482E-2	8.614161611E-2	9.865608215E0	9.866112245E0
1.638054272E0	4.785645381E-2	8.135596663E-2	9.858428955E0	9.858880793E0
1.639250261E0	4.067798331E-2	7.417750359E-2	9.851250648E0	9.851613895E0
1.640446251E0	4.307080805E-2	6.460621208E-2	9.839286804E0	9.839593176E0
1.641642188E0	5.024927482E-2	6.460621208E-2	9.834501266E0	9.834841845E0
1.642838178E0	5.503492057E-2	6.699903309E-2	9.836894035E0	9.837276146E0
1.644034167E0	6.460621208E-2	6.699903309E-2	9.846465111E0	9.846904997E0
1.645230157E0	6.939185411E-2	7.657032460E-2	9.848857880E0	9.849399970E0
1.646426094E0	6.699903309E-2	8.374879509E-2	9.844072342E0	9.844656571E0
1.647622084E0	5.503492057E-2	8.374879509E-2	9.841679573E0	9.842189773E0
1.648818074E0	4.785645381E-2	7.417750359E-2	9.836894035E0	9.837290115E0
1.650014063E0	4.307080805E-2	5.982056633E-2	9.822537422E0	9.822814006E0
1.651210001E0	3.589234129E-2	5.982056633E-2	9.817750931E0	9.817998783E0
1.652405990E0	4.546362907E-2	7.417750359E-2	9.808179855E0	9.808565712E0
1.653601980E0	5.264209956E-2	7.896314561E-2	9.789037704E0	9.789497717E0
1.654797969E0	5.264209956E-2	6.939185411E-2	9.772287369E0	9.772675521E0
1.655993959E0	5.024927482E-2	6.221338734E-2	9.762716293E0	9.763043835E0
1.657189897E0	4.307080805E-2	5.503492057E-2	9.760323524E0	9.760573715E0
1.658385886E0	4.067798331E-2	4.067798331E-2	9.767501831E0	9.767671238E0
1.659581876E0	3.828516230E-2	3.828516230E-2	9.781859398E0	9.782009241E0
1.660777865E0	3.828516230E-2	3.828516230E-2	9.796216011E0	9.796365634E0
1.661973803E0	4.546362907E-2	4.307080805E-2	9.812965393E0	9.813165231E0
1.663169792E0	5.982056633E-2	5.503492057E-2	9.815358162E0	9.815694738E0
1.664365782E0	6.939185411E-2	5.264209956E-2	9.810572624E0	9.810959262E0
1.665561772E0	6.460621208E-2	3.828516230E-2	9.817750931E0	9.818038147E0
1.666757761E0	5.742774159E-2	3.349951655E-2	9.822537422E0	9.822762421E0
1.667953699E0	6.699903309E-2	3.349951655E-2	9.812965393E0	9.813251291E0
1.669149688E0	8.614161611E-2	3.110669367E-2	9.801001549E0	9.801429455E0
1.670345678E0	1.004985496E-1	2.632104978E-2	9.791430473E0	9.791981591E0
1.671541667E0	9.810572863E-2	2.392822690E-2	9.786644936E0	9.787165902E0
1.672737605E0	9.332008660E-2	2.632104978E-2	9.786644936E0	9.787125243E0
1.673933594E0	9.810572863E-2	1.435693540E-2	9.777072906E0	9.777575644E0
1.675129584E0	1.028913707E-1	1.435693540E-2	9.772287369E0	9.772839566E0
1.676325574E0	1.004985496E-1	2.632104978E-2	9.774680138E0	9.775232199E0
1.677521563E0	1.100698411E-1	2.392822690E-2	9.781859398E0	9.782507920E0
1.678717501E0	1.220339537E-1	2.632104978E-2	9.798608780E0	9.799404018E0
1.679913490E0	1.220339537E-1	3.349951655E-2	9.812965393E0	9.813781346E0
1.681109480E0	1.268195957E-1	3.828516230E-2	9.824930191E0	9.825823234E0
1.682305469E0	1.316052526E-1	4.307080805E-2	9.841679573E0	9.842653700E0
1.683501407E0	1.316052526E-1	3.589234129E-2	9.844072342E0	9.845017444E0
1.684697397E0	1.244267747E-1	2.392822690E-2	9.832108498E0	9.832924900E0
1.685893386E0	1.172483116E-1	1.435693540E-2	9.820143700E0	9.820854116E0
1.687089376E0	1.148554832E-1	2.392822690E-2	9.822537422E0	9.823238048E0
1.688285365E0	1.124626622E-1	4.307080805E-2	9.836894035E0	9.837631179E0
1.689481303E0	1.220339537E-1	5.503492057E-2	9.856036186E0	9.856945289E0
1.690677292E0	1.268195957E-1	5.982056633E-2	9.870393753E0	9.871389697E0
1.691873282E0	1.339980662E-1	5.264209956E-2	9.875179291E0	9.876228668E0
1.693069272E0	1.292124242E-1	5.264209956E-2	9.875179291E0	9.876164897E0
1.694265209E0	1.268195957E-1	4.546362907E-2	9.875179291E0	9.876098226E0
1.695461199E0	1.268195957E-1	2.871387079E-2	9.872786522E0	9.873642763E0
1.696657188E0	1.244267747E-1	2.392822690E-2	9.875179291E0	9.875992133E0
1.697853178E0	1.292124242E-1	2.871387079E-2	9.891928673E0	9.892814221E0
1.699049115E0	1.292124242E-1	3.349951655E-2	9.906285286E0	9.907184577E0
1.700245105E0	1.387837082E-1	4.307080805E-2	9.915857315E0	9.916922018E0
1.701441094E0	1.459621787E-1	4.785645381E-2	9.906285286E0	9.907476135E0
1.702637084E0	1.507478207E-1	5.024927482E-2	9.882357597E0	9.883635039E0
1.703833074E0	1.507478207E-1	4.785645381E-2	9.858428955E0	9.859697592E0
1.705029011E0	1.459621787E-1	4.307080805E-2	9.844072342E0	9.845248617E0
1.706225001E0	1.411765367E-1	4.307080805E-2	9.844072342E0	9.845178829E0
1.707420990E0	1.316052526E-1	5.024927482E-2	9.848857880E0	9.849865302E0
1.708616980E0	1.316052526E-1	5.503492057E-2	9.856036186E0	9.857068433E0
1.709812917E0	1.459621787E-1	5.982056633E-2	9.858428955E0	9.859690914E0
1.711008907E0	1.459621787E-1	5.742774159E-2	9.863214493E0	9.864461619E0
1.712204897E0	1.435693651E-1	5.264209956E-2	9.872786522E0	9.873970684E0
1.713400886E0	1.435693651E-1	5.024927482E-2	9.868000984E0	9.869173247E0
1.714596824E0	1.435693651E-1	4.307080805E-2	9.856036186E0	9.857175892E0
1.715792813E0	1.555334777E-1	4.546362907E-2	9.851250648E0	9.852583262E0
1.716988803E0	1.627119333E-1	5.264209956E-2	9.844072342E0	9.845557711E0
1.718184792E0	1.579262912E-1	5.982056633E-2	9.836894035E0	9.838343533E0
1.719380782E0	1.459621787E-1	6.699903309E-2	9.839286804E0	9.840597474E0
1.720576719E0	1.387837082E-1	7.417750359E-2	9.836894035E0	9.838152646E0
1.721772709E0	1.507478207E-1	8.135596663E-2	9.815358162E0	9.816852833E0
1.722968699E0	1.603191197E-1	7.178468257E-2	9.793823242E0	9.795398356E0
1.724164688E0	1.531406492E-1	5.982056633E-2	9.801001549E0	9.802380421E0
1.725360678E0	1.363908947E-1	6.460621208E-2	9.805787086E0	9.806948395E0
1.726556615E0	1.244267747E-1	7.657032460E-2	9.801001549E0	9.802090409E0
1.727752605E0	1.244267747E-1	8.614161611E-2	9.803394318E0	9.804562333E0
1.728948594E0	1.339980662E-1	8.135596663E-2	9.801001549E0	9.802255130E0
1.730144584E0	1.387837082E-1	6.939185411E-2	9.789037704E0	9.790267378E0
1.731340522E0	1.316052526E-1	6.939185411E-2	9.779465675E0	9.780597327E0
1.732536511E0	1.339980662E-1	7.417750359E-2	9.774680138E0	9.775879990E0
1.733732501E0	1.459621787E-1	8.374879509E-2	9.774680138E0	9.776128611E0
1.734928490E0	1.531406492E-1	8.853443712E-2	9.781859398E0	9.783458677E0
1.736124428E0	1.555334777E-1	8.374879509E-2	9.781859398E0	9.783454288E0
1.737320417E0	1.507478207E-1	7.896314561E-2	9.777072906E0	9.778553814E0
1.738516407E0	1.435693651E-1	8.614161611E-2	9.774680138E0	9.776113969E0
1.739712397E0	1.387837082E-1	8.853443712E-2	9.772287369E0	9.773673807E0
1.740908386E0	1.411765367E-1	9.092725813E-2	9.772287369E0	9.773730045E0
1.742104324E0	1.507478207E-1	1.052841991E-1	9.777072906E0	9.778801782E0
1.743300313E0	1.411765367E-1	1.124626622E-1	9.781859398E0	9.783524515E0
1.744496303E0	1.316052526E-1	9.810572863E-2	9.777072906E0	9.778450762E0
1.745692657E0	1.411765367E-1	8.853443712E-2	9.774680138E0	9.776100498E0
1.746888230E0	1.507478207E-1	8.614161611E-2	9.772287369E0	9.773829633E0
1.748084219E0	1.507478207E-1	9.571290761E-2	9.784252167E0	9.785881479E0
1.749280209E0	1.579262912E-1	1.052841991E-1	9.805787086E0	9.807623864E0
1.750476199E0	1.603191197E-1	1.076770201E-1	9.820143700E0	9.822042499E0
1.751672188E0	1.722832322E-1	1.052841991E-1	9.827322960E0	9.829396870E0
1.752868126E0	1.794617027E-1	1.004985496E-1	9.832108498E0	9.834259706E0
1.754064115E0	1.627119333E-1	1.100698411E-1	9.822537422E0	9.824501613E0
1.755260105E0	1.459621787E-1	1.100698411E-1	9.822537422E0	9.824238481E0
1.756456094E0	1.339980662E-1	9.810572863E-2	9.832108498E0	9.833510956E0
1.757652032E0	1.292124242E-1	9.092725813E-2	9.836894035E0	9.838162830E0
1.758848022E0	1.363908947E-1	8.853443712E-2	9.846465111E0	9.847807675E0
1.760044011E0	1.339980662E-1	1.004985496E-1	9.844072342E0	9.845497230E0
1.761240001E0	1.292124242E-1	1.076770201E-1	9.844072342E0	9.845509152E0
1.762435990E0	1.363908947E-1	1.004985496E-1	9.851250648E0	9.852707332E0
1.763631928E0	1.483550072E-1	9.571290761E-2	9.860821724E0	9.862402103E0
1.764827917E0	1.555334777E-1	9.810572863E-2	9.875179291E0	9.876891283E0
1.766023907E0	1.674975902E-1	9.810572863E-2	9.887143135E0	9.889048465E0
1.767219897E0	1.651047617E-1	9.571290761E-2	9.889535904E0	9.891377100E0
1.768415886E0	1.531406492E-1	9.810572863E-2	9.882357597E0	9.884030983E0
1.769611824E0	1.531406492E-1	8.853443712E-2	9.872786522E0	9.874371074E0
1.770807813E0	1.531406492E-1	7.657032460E-2	9.879964828E0	9.881448279E0
1.772003803E0	1.579262912E-1	7.417750359E-2	9.894321442E0	9.895859731E0
1.773199792E0	1.651047617E-1	7.896314561E-2	9.903892517E0	9.905583362E0
1.774395730E0	1.627119333E-1	8.374879509E-2	9.903892517E0	9.905583073E0
1.775591719E0	1.627119333E-1	8.135596663E-2	9.901499748E0	9.903170767E0
1.776787709E0	1.627119333E-1	6.699903309E-2	9.891928673E0	9.893493666E0
1.777983699E0	1.722832322E-1	5.503492057E-2	9.882357597E0	9.884012446E0
1.779179636E0	1.651047617E-1	5.982056633E-2	9.879964828E0	9.881525343E0
1.780375626E0	1.507478207E-1	6.699903309E-2	9.887143135E0	9.888519260E0
1.781571615E0	1.603191197E-1	6.221338734E-2	9.887143135E0	9.888638536E0
1.782767605E0	1.674975902E-1	6.221338734E-2	9.870393753E0	9.872010879E0
1.783963594E0	1.603191197E-1	6.939185411E-2	9.858428955E0	9.859976618E0
1.785159532E0	1.579262912E-1	6.939185411E-2	9.858428955E0	9.859938002E0
1.786355522E0	1.603191197E-1	6.939185411E-2	9.858428955E0	9.859976618E0
1.787551511E0	1.555334777E-1	5.982056633E-2	9.865608215E0	9.867015487E0
1.788747501E0	1.555334777E-1	5.264209956E-2	9.868000984E0	9.869367015E0
1.789943438E0	1.674975902E-1	5.264209956E-2	9.865608215E0	9.867170420E0
1.791139428E0	1.818545163E-1	4.546362907E-2	9.863214493E0	9.864995597E0
1.792335417E0	1.746760458E-1	5.503492057E-2	9.858428955E0	9.860129919E0
1.793531407E0	1.579262912E-1	6.699903309E-2	9.853643417E0	9.855136639E0
1.794727397E0	1.579262912E-1	5.742774159E-2	9.858428955E0	9.859861060E0
1.795923334E0	1.698904037E-1	4.546362907E-2	9.856036186E0	9.857605135E0
1.797119324E0	1.651047617E-1	4.067798331E-2	9.844072342E0	9.845540846E0
1.798315313E0	1.555334777E-1	3.828516230E-2	9.832108498E0	9.833413137E0
1.799511303E0	1.411765367E-1	4.546362907E-2	9.824930191E0	9.826049614E0
1.800707240E0	1.363908947E-1	5.024927482E-2	9.820143700E0	9.821219362E0
1.801903230E0	1.483550072E-1	5.742774159E-2	9.817750931E0	9.819039693E0
1.803099219E0	1.507478207E-1	6.699903309E-2	9.808179855E0	9.809567057E0
1.804295209E0	1.483550072E-1	6.939185411E-2	9.793823242E0	9.795192603E0
1.805491199E0	1.435693651E-1	5.982056633E-2	9.791430473E0	9.792665693E0
1.806687136E0	1.459621787E-1	4.785645381E-2	9.798608780E0	9.799812713E0
1.807883126E0	1.531406492E-1	4.546362907E-2	9.805787086E0	9.807088222E0
1.809079115E0	1.435693651E-1	5.264209956E-2	9.808179855E0	9.809371816E0
1.810275105E0	1.363908947E-1	5.024927482E-2	9.801001549E0	9.802079311E0
1.811471042E0	1.483550072E-1	5.024927482E-2	9.793823242E0	9.795075696E0
1.812667032E0	1.651047617E-1	6.221338734E-2	9.798608780E0	9.800197146E0
1.813863022E0	1.674975902E-1	6.460621208E-2	9.805787086E0	9.807430336E0
1.815059011E0	1.579262912E-1	5.742774159E-2	9.789037704E0	9.790479960E0
1.816255001E0	1.555334777E-1	6.699903309E-2	9.767501831E0	9.768969831E0
1.817450938E0	1.507478207E-1	7.178468257E-2	9.767501831E0	9.768928803E0
1.818646928E0	1.387837082E-1	6.939185411E-2	9.774680138E0	9.775911617E0
1.819842917E0	1.411765367E-1	7.178468257E-2	9.784252167E0	9.785533931E0
1.821038907E0	1.459621787E-1	6.939185411E-2	9.791430473E0	9.792764211E0
1.822234844E0	1.459621787E-1	6.221338734E-2	9.801001549E0	9.802285796E0
1.823430834E0	1.459621787E-1	5.264209956E-2	9.810572624E0	9.811799599E0
1.824626824E0	1.316052526E-1	5.503492057E-2	9.812965393E0	9.814002170E0
1.825822813E0	1.292124242E-1	5.982056633E-2	9.817750931E0	9.818783412E0
1.827018803E0	1.387837082E-1	6.460621208E-2	9.817750931E0	9.818944354E0
1.828214740E0	1.268195957E-1	6.699903309E-2	9.810572624E0	9.811621033E0
1.829410730E0	1.076770201E-1	6.221338734E-2	9.815358162E0	9.816145918E0
1.830606719E0	1.100698411E-1	6.460621208E-2	9.820143700E0	9.820973048E0
1.831802709E0	1.196411327E-1	6.221338734E-2	9.815358162E0	9.816284447E0
1.832998647E0	1.196411327E-1	6.221338734E-2	9.815358162E0	9.816284447E0
1.834194636E0	1.244267747E-1	6.460621208E-2	9.815358162E0	9.816359398E0
1.835390626E0	1.363908947E-1	5.742774159E-2	9.824930191E0	9.826044661E0
1.836586615E0	1.411765367E-1	5.742774159E-2	9.834501266E0	9.835682179E0
1.837782553E0	1.339980662E-1	6.460621208E-2	9.832108498E0	9.833233799E0
1.838978542E0	1.220339537E-1	6.699903309E-2	9.832108498E0	9.833094054E0
1.840174532E0	1.244267747E-1	5.982056633E-2	9.839286804E0	9.840255349E0
1.841370522E0	1.292124242E-1	5.742774159E-2	9.841679573E0	9.842695292E0
1.842566511E0	1.292124242E-1	6.699903309E-2	9.848857880E0	9.849933312E0
1.843762449E0	1.124626622E-1	7.657032460E-2	9.858428955E0	9.859367745E0
1.844958438E0	1.052841991E-1	7.896314561E-2	9.858428955E0	9.859307349E0
1.846154428E0	1.124626622E-1	8.135596663E-2	9.860821724E0	9.861798604E0
1.847350417E0	1.100698411E-1	7.417750359E-2	9.870393753E0	9.871286163E0
1.848546407E0	9.810572863E-2	5.982056633E-2	9.879964828E0	9.880632988E0
1.849742344E0	9.332008660E-2	4.307080805E-2	9.879964828E0	9.880499418E0
1.850938334E0	8.853443712E-2	4.307080805E-2	9.868000984E0	9.868492127E0
1.852134324E0	8.853443712E-2	5.264209956E-2	9.860821724E0	9.861359673E0
1.853330313E0	9.092725813E-2	5.503492057E-2	9.858428955E0	9.859001880E0
1.854526251E0	9.092725813E-2	6.221338734E-2	9.856036186E0	9.856651946E0
1.855722240E0	9.571290761E-2	6.460621208E-2	9.851250648E0	9.851927439E0
1.856918230E0	9.092725813E-2	6.221338734E-2	9.848857880E0	9.849474088E0
1.858114219E0	9.332008660E-2	6.221338734E-2	9.851250648E0	9.851889082E0
1.859310209E0	9.332008660E-2	5.982056633E-2	9.860821724E0	9.861444732E0
1.860506147E0	8.374879509E-2	5.982056633E-2	9.865608215E0	9.866145033E0
1.861702136E0	7.896314561E-2	5.982056633E-2	9.860821724E0	9.861319321E0
1.862898126E0	6.939185411E-2	5.503492057E-2	9.856036186E0	9.856434111E0
1.864094115E0	5.264209956E-2	4.785645381E-2	9.853643417E0	9.853900244E0
1.865290053E0	4.546362907E-2	5.982056633E-2	9.856036186E0	9.856322577E0
1.866486042E0	5.503492057E-2	7.417750359E-2	9.856036186E0	9.856468965E0
1.867682032E0	7.657032460E-2	6.699903309E-2	9.851250648E0	9.851776044E0
1.868878022E0	9.092725813E-2	5.503492057E-2	9.846465111E0	9.847038732E0
1.870073959E0	8.614161611E-2	5.264209956E-2	9.846465111E0	9.846982621E0
1.871269949E0	7.178468257E-2	5.503492057E-2	9.851250648E0	9.851665911E0
1.872465938E0	6.221338734E-2	5.982056633E-2	9.844072342E0	9.844450684E0
1.873661928E0	6.460621208E-2	5.742774159E-2	9.832108498E0	9.832488465E0
1.874857917E0	7.896314561E-2	5.982056633E-2	9.829715729E0	9.830214900E0
1.876053855E0	8.853443712E-2	7.178468257E-2	9.824930191E0	9.825591313E0
1.877249844E0	8.614161611E-2	6.699903309E-2	9.812965393E0	9.813572186E0
1.878445834E0	7.417750359E-2	6.221338734E-2	9.810572624E0	9.811050302E0
1.879641824E0	8.374879509E-2	5.982056633E-2	9.810572624E0	9.811112454E0
1.880837761E0	9.571290761E-2	5.742774159E-2	9.817750931E0	9.818385419E0
1.882033751E0	9.571290761E-2	5.264209956E-2	9.834501266E0	9.835107895E0
1.883229740E0	9.810572863E-2	5.503492057E-2	9.834501266E0	9.835144571E0
1.884425730E0	9.810572863E-2	5.742774159E-2	9.820143700E0	9.820801646E0
1.885621719E0	9.810572863E-2	5.503492057E-2	9.803394318E0	9.804039663E0
1.886817657E0	1.004985496E-1	5.503492057E-2	9.796216011E0	9.796886084E0
1.888013647E0	1.076770201E-1	5.503492057E-2	9.796216011E0	9.796962352E0
1.889209636E0	1.076770201E-1	5.982056633E-2	9.793823242E0	9.794597824E0
1.890405626E0	1.076770201E-1	6.460621208E-2	9.793823242E0	9.794628222E0
1.891601563E0	1.052841991E-1	6.221338734E-2	9.798608780E0	9.799371882E0
1.892797553E0	1.028913707E-1	5.264209956E-2	9.805787086E0	9.806468182E0
1.893993542E0	1.052841991E-1	5.982056633E-2	9.808179855E0	9.808927329E0
1.895189532E0	1.124626622E-1	7.417750359E-2	9.808179855E0	9.809105068E0
1.896385522E0	1.124626622E-1	7.896314561E-2	9.808179855E0	9.809142424E0
1.897581459E0	1.028913707E-1	8.135596663E-2	9.810572624E0	9.811449467E0
1.898777449E0	9.810572863E-2	8.135596663E-2	9.808179855E0	9.809007881E0
1.899973438E0	1.004985496E-1	8.374879509E-2	9.791430473E0	9.792304353E0
1.901169428E0	1.124626622E-1	7.657032460E-2	9.772287369E0	9.773234433E0
1.902365365E0	1.172483116E-1	6.460621208E-2	9.765109062E0	9.766026629E0
1.903561355E0	1.148554832E-1	7.417750359E-2	9.772287369E0	9.773243807E0
1.904757344E0	1.148554832E-1	8.853443712E-2	9.784252167E0	9.785326800E0
1.905953334E0	1.172483116E-1	8.614161611E-2	9.798608780E0	9.799688850E0
1.907149272E0	1.148554832E-1	8.614161611E-2	9.815358162E0	9.816408101E0
1.908345261E0	1.076770201E-1	8.374879509E-2	9.827322960E0	9.828269673E0
1.909541251E0	1.028913707E-1	8.135596663E-2	9.834501266E0	9.835375976E0
1.910737240E0	1.052841991E-1	8.135596663E-2	9.839286804E0	9.840186399E0
1.911933230E0	1.172483116E-1	8.135596663E-2	9.839286804E0	9.840321680E0
1.913129167E0	1.292124242E-1	7.896314561E-2	9.836894035E0	9.838059529E0
1.914325157E0	1.316052526E-1	6.939185411E-2	9.832108498E0	9.833234091E0
1.915521147E0	1.316052526E-1	6.460621208E-2	9.834501266E0	9.835593986E0
1.916717136E0	1.244267747E-1	6.939185411E-2	9.827322960E0	9.828355600E0
1.917913126E0	1.172483116E-1	6.699903309E-2	9.820143700E0	9.821072157E0
1.919109063E0	1.220339537E-1	6.221338734E-2	9.824930191E0	9.825885001E0
1.920305053E0	1.339980662E-1	6.699903309E-2	9.841679573E0	9.842819777E0
1.921501042E0	1.363908947E-1	6.699903309E-2	9.846465111E0	9.847637611E0
1.922697032E0	1.316052526E-1	5.982056633E-2	9.829715729E0	9.830778695E0
1.923892969E0	1.268195957E-1	5.264209956E-2	9.820143700E0	9.821103639E0
1.925088959E0	1.148554832E-1	5.264209956E-2	9.827322960E0	9.828135099E0
1.926284949E0	1.148554832E-1	4.785645381E-2	9.841679573E0	9.842466095E0
1.927480938E0	1.268195957E-1	4.785645381E-2	9.851250648E0	9.852183148E0
1.928676876E0	1.387837082E-1	5.982056633E-2	9.846465111E0	9.847624820E0
1.929872865E0	1.387837082E-1	6.699903309E-2	9.844072342E0	9.845278567E0
1.931068855E0	1.435693651E-1	6.460621208E-2	9.844072342E0	9.845331198E0
1.932264844E0	1.459621787E-1	5.742774159E-2	9.832108498E0	9.833359569E0
1.933460834E0	1.268195957E-1	4.785645381E-2	9.817750931E0	9.818686612E0
1.934656772E0	1.196411327E-1	4.785645381E-2	9.812965393E0	9.813811392E0
1.935852761E0	1.316052526E-1	5.024927482E-2	9.822537422E0	9.823547544E0
1.937048751E0	1.268195957E-1	4.785645381E-2	9.839286804E0	9.840220438E0
1.938244740E0	1.172483116E-1	4.307080805E-2	9.848857880E0	9.849649933E0
1.939440730E0	1.172483116E-1	3.349951655E-2	9.853643417E0	9.854397900E0
1.940636667E0	1.124626622E-1	3.828516230E-2	9.853643417E0	9.854359553E0
1.941832657E0	1.052841991E-1	4.546362907E-2	9.846465111E0	9.847132927E0
1.943028647E0	1.100698411E-1	4.307080805E-2	9.841679573E0	9.842389308E0
1.944224636E0	1.100698411E-1	4.307080805E-2	9.839286804E0	9.839996711E0
1.945420574E0	1.124626622E-1	4.307080805E-2	9.841679573E0	9.842416358E0
1.946616563E0	1.124626622E-1	3.349951655E-2	9.841679573E0	9.842379127E0
1.947812553E0	1.076770201E-1	3.110669367E-2	9.836894035E0	9.837532527E0
1.949008542E0	1.220339537E-1	4.307080805E-2	9.829715729E0	9.830567567E0
1.950204480E0	1.339980662E-1	5.024927482E-2	9.829715729E0	9.830757437E0
1.951400469E0	1.316052526E-1	5.024927482E-2	9.841679573E0	9.842687730E0
1.952596459E0	1.172483116E-1	5.024927482E-2	9.848857880E0	9.849683939E0
1.953792449E0	1.028913707E-1	5.024927482E-2	9.848857880E0	9.849523499E0
1.954988438E0	1.028913707E-1	5.742774159E-2	9.836894035E0	9.837599750E0
1.956184376E0	1.076770201E-1	6.460621208E-2	9.836894035E0	9.837695491E0
1.957380365E0	1.076770201E-1	7.657032460E-2	9.841679573E0	9.842566442E0
1.958576355E0	1.052841991E-1	7.657032460E-2	9.844072342E0	9.844933116E0
1.959772344E0	1.028913707E-1	7.178468257E-2	9.836894035E0	9.837694036E0
1.960968282E0	9.571290761E-2	6.699903309E-2	9.839286804E0	9.839980419E0
1.962164272E0	9.810572863E-2	6.221338734E-2	9.844072342E0	9.844757768E0
1.963360261E0	1.076770201E-1	6.699903309E-2	9.836894035E0	9.837711496E0
1.964556251E0	1.052841991E-1	7.417750359E-2	9.829715729E0	9.830559413E0
1.965752240E0	1.076770201E-1	8.135596663E-2	9.822537422E0	9.823464488E0
1.966948178E0	1.100698411E-1	8.614161611E-2	9.824930191E0	9.825924333E0
1.968144167E0	9.571290761E-2	9.332008660E-2	9.829715729E0	9.830624645E0
1.969340157E0	8.853443712E-2	9.571290761E-2	9.832108498E0	9.832972939E0
1.970536147E0	1.004985496E-1	1.052841991E-1	9.832108498E0	9.833185762E0
1.971732084E0	9.810572863E-2	1.100698411E-1	9.829715729E0	9.830821502E0
1.972928074E0	8.853443712E-2	9.810572863E-2	9.824930191E0	9.825818864E0
1.974124063E0	9.332008660E-2	8.614161611E-2	9.822537422E0	9.823358409E0
1.975320053E0	9.092725813E-2	8.614161611E-2	9.827322960E0	9.828121118E0
1.976516042E0	8.135596663E-2	9.810572863E-2	9.836894035E0	9.837719644E0
1.977711980E0	7.178468257E-2	1.076770201E-1	9.841679573E0	9.842530376E0
1.978907969E0	7.178468257E-2	1.076770201E-1	9.836894035E0	9.837745252E0
1.980103959E0	7.896314561E-2	9.571290761E-2	9.829715729E0	9.830498840E0
1.981299949E0	9.332008660E-2	9.332008660E-2	9.820143700E0	9.821030473E0
1.982495938E0	9.332008660E-2	9.332008660E-2	9.820143700E0	9.821030473E0
1.983691876E0	8.374879509E-2	9.810572863E-2	9.824930191E0	9.825776908E0
1.984887865E0	7.896314561E-2	1.076770201E-1	9.824930191E0	9.825837510E0
1.986083855E0	8.374879509E-2	9.810572863E-2	9.829715729E0	9.830562034E0
1.987279844E0	9.092725813E-2	8.853443712E-2	9.834501266E0	9.835320090E0
1.988475782E0	8.853443712E-2	9.092725813E-2	9.827322960E0	9.828142381E0
1.989671772E0	8.614161611E-2	1.052841991E-1	9.812965393E0	9.813908240E0
1.990867761E0	9.332008660E-2	1.244267747E-1	9.810572624E0	9.811805434E0
1.992063751E0	8.374879509E-2	1.220339537E-1	9.824930191E0	9.826044952E0
1.993259688E0	6.699903309E-2	1.124626622E-1	9.829715729E0	9.830587369E0
1.994455678E0	6.221338734E-2	1.148554832E-1	9.824930191E0	9.825798469E0
