"Time (s)"	"Acceleration x (m/s^2)"	"Acceleration y (m/s^2)"	"Acceleration z (m/s^2)"	"Absolute acceleration (m/s^2)"
3.036027600E-2	4.642075896E-1	1.531406522E0	9.425328255E0	9.560204356E0
3.155616200E-2	5.192425251E-1	1.490728498E0	9.482755661E0	9.613248108E0
3.275204700E-2	5.264210105E-1	1.488335729E0	9.535398483E0	9.665199768E0
3.394788000E-2	5.240281820E-1	1.500299811E0	9.576076508E0	9.707046221E0
3.514418300E-2	5.264210105E-1	1.512263894E0	9.604789734E0	9.737353182E0
3.633965100E-2	5.240281820E-1	1.526620865E0	9.640682220E0	9.774862172E0
3.753553700E-2	5.503492355E-1	1.531406522E0	9.683753014E0	9.819529655E0
3.873137000E-2	6.269195080E-1	1.514656782E0	9.748359680E0	9.885227852E0
3.992725500E-2	6.771687865E-1	1.505085468E0	9.798608780E0	9.936627891E0
4.112314100E-2	6.580262184E-1	1.519442320E0	9.834501266E0	9.972919263E0
4.231897400E-2	6.077769399E-1	1.540977836E0	9.863214493E0	1.000135019E1
4.351486000E-2	5.551348329E-1	1.560120344E0	9.891928673E0	1.002957641E1
4.471074500E-2	5.096712112E-1	1.579262972E0	9.930213928E0	1.006791860E1
4.590663000E-2	4.785645306E-1	1.586441398E0	9.966106415E0	1.010292519E1
4.710246400E-2	4.474578202E-1	1.581655741E0	9.997213364E0	1.013144256E1
4.829834900E-2	4.307080805E-1	1.569691658E0	1.003071213E1	1.016192045E1
4.949423500E-2	4.211367965E-1	1.540977836E0	1.006421185E1	1.019020750E1
5.069012000E-2	4.019941986E-1	1.507478237E0	1.010488987E1	1.022462172E1
5.188595300E-2	3.852444589E-1	1.485942841E0	1.013838959E1	1.025394475E1
5.308183900E-2	3.804588020E-1	1.462014675E0	1.014796066E1	1.025979247E1
5.427772400E-2	3.804588020E-1	1.426122308E0	1.015035343E1	1.025710722E1
5.547355800E-2	3.756731451E-1	1.404586911E0	1.014317513E1	1.024685300E1
5.666944300E-2	3.589234054E-1	1.395015597E0	1.012881851E1	1.023073111E1
5.786532800E-2	3.397808075E-1	1.390229940E0	1.010967541E1	1.021047144E1
5.906121400E-2	3.182454109E-1	1.375872970E0	1.008814049E1	1.018650505E1
6.025704700E-2	2.895315289E-1	1.361516118E0	1.005942631E1	1.015527510E1
6.145293300E-2	2.679961324E-1	1.359123230E0	1.002592659E1	1.012117789E1
6.264881800E-2	2.512463629E-1	1.366301775E0	9.997213364E0	1.009327401E1
6.384465100E-2	2.416750938E-1	1.371087432E0	9.990034103E0	1.008657866E1
6.504053700E-2	2.368894368E-1	1.373480201E0	9.973284721E0	1.007020221E1
6.623642200E-2	2.321037948E-1	1.371087432E0	9.949356079E0	1.004606586E1
6.743230800E-2	2.249253243E-1	1.368694544E0	9.951749802E0	1.004794707E1
6.862814100E-2	2.105683982E-1	1.375872970E0	9.961320877E0	1.005809520E1
6.982402600E-2	2.105683982E-1	1.378265858E0	9.966106415E0	1.006316217E1
7.101991200E-2	2.225325108E-1	1.363908887E0	9.958928108E0	1.005435315E1
7.221579700E-2	2.273181528E-1	1.339980721E0	9.963713646E0	1.005598387E1
7.341163000E-2	2.225325108E-1	1.316052437E0	9.970891953E0	1.005983107E1
7.460751600E-2	2.129612118E-1	1.294517040E0	9.975677490E0	1.006157384E1
7.580340100E-2	2.105683982E-1	1.268195987E0	9.990034103E0	1.007240992E1
7.699928700E-2	2.153540403E-1	1.251446247E0	9.997213364E0	1.007753790E1
7.819512000E-2	2.201396823E-1	1.239482164E0	1.000439167E1	1.008328469E1
7.939100500E-2	2.201396823E-1	1.241874933E0	1.000678444E1	1.008595309E1
8.058689100E-2	2.105683982E-1	1.241874933E0	1.000678444E1	1.008574872E1
8.178272400E-2	2.033899277E-1	1.229910851E0	1.001635551E1	1.009363294E1
8.297861000E-2	1.938186288E-1	1.220339537E0	1.003071213E1	1.010653155E1
8.417449500E-2	1.866401732E-1	1.213161111E0	1.003549862E1	1.011028323E1
8.537038000E-2	1.866401732E-1	1.208375454E0	1.004985523E1	1.012396148E1
8.656621400E-2	1.866401732E-1	1.196411371E0	1.006421185E1	1.013679411E1
8.776209900E-2	1.818545163E-1	1.177268744E0	1.007378292E1	1.014397038E1
8.895798500E-2	1.698904037E-1	1.153340459E0	1.008574772E1	1.015289929E1
9.015387000E-2	1.579262912E-1	1.134197950E0	1.009771156E1	1.016243694E1
9.134970300E-2	1.507478207E-1	1.138983607E0	1.011206818E1	1.017712785E1
9.254558900E-2	1.483550072E-1	1.136590719E0	1.012164021E1	1.018633634E1
9.374147400E-2	1.435693651E-1	1.119840980E0	1.012881851E1	1.019154652E1
9.493730800E-2	1.387837082E-1	1.107876897E0	1.014317513E1	1.020444284E1
9.613319300E-2	1.268195957E-1	1.103091240E0	1.015992451E1	1.022041875E1
9.732907800E-2	1.220339537E-1	1.098305583E0	1.017428207E1	1.023411858E1
9.852496400E-2	1.292124242E-1	1.081555843E0	1.019103146E1	1.024907708E1
9.972079700E-2	1.339980662E-1	1.064806104E0	1.020538902E1	1.026166325E1
1.009166830E-1	1.411765367E-1	1.055234790E0	1.021017456E1	1.026553047E1
1.021125680E-1	1.459621787E-1	1.043270707E0	1.021256733E1	1.026675461E1
1.033084530E-1	1.363908947E-1	1.028913736E0	1.021735287E1	1.026993503E1
1.045042870E-1	1.244267747E-1	1.028913736E0	1.021735287E1	1.026978311E1
1.057001720E-1	1.292124242E-1	1.036092162E0	1.020778179E1	1.026104244E1
1.068960580E-1	1.411765367E-1	1.033699393E0	1.018863869E1	1.024191503E1
1.080918910E-1	1.459621787E-1	1.026520967E0	1.016471100E1	1.021745565E1
1.092877760E-1	1.507478207E-1	1.019342422E0	1.013838959E1	1.019061957E1
1.104836620E-1	1.603191197E-1	1.014556766E0	1.012164021E1	1.017362414E1
1.116795470E-1	1.722832322E-1	1.012163997E0	1.010249710E1	1.015453619E1
1.128753800E-1	1.722832322E-1	1.016949654E0	1.008335495E1	1.013597135E1
1.140712660E-1	1.698904037E-1	1.014556766E0	1.005942631E1	1.011188636E1
1.152671510E-1	1.770688742E-1	1.009771109E0	1.004028416E1	1.009248716E1
1.164630370E-1	1.818545163E-1	1.021735311E0	1.003789139E1	1.009139622E1
1.176588700E-1	1.818545163E-1	1.028913736E0	1.003789139E1	1.009212555E1
1.188547550E-1	1.962114573E-1	1.031306505E0	1.002831936E1	1.008311863E1
1.200506410E-1	2.153540403E-1	1.038485050E0	1.001874828E1	1.007472807E1
1.212464740E-1	2.297109663E-1	1.028913736E0	1.001396275E1	1.006930387E1
1.224423600E-1	2.368894368E-1	1.024128079E0	1.000678444E1	1.006184326E1
1.236382450E-1	2.416750938E-1	1.033699393E0	1.000678444E1	1.006293576E1
1.248341300E-1	2.416750938E-1	1.031306505E0	1.001396275E1	1.006982869E1
1.260299640E-1	2.392822653E-1	1.036092162E0	1.001635551E1	1.007264219E1
1.272258490E-1	2.416750938E-1	1.045663476E0	1.001156998E1	1.006893005E1
1.284217350E-1	2.392822653E-1	1.048056364E0	9.999606133E0	1.005722631E1
1.296176200E-1	2.297109663E-1	1.048056364E0	9.994820595E0	1.005224492E1
1.308134530E-1	2.177468538E-1	1.043270707E0	9.997213364E0	1.005386008E1
1.320093390E-1	2.081755698E-1	1.045663476E0	9.997213364E0	1.005390592E1
1.332052240E-1	1.914258152E-1	1.062413216E0	1.000199890E1	1.006008686E1
1.344010580E-1	1.818545163E-1	1.062413216E0	1.002831936E1	1.008607863E1
1.355969430E-1	1.746760458E-1	1.052842021E0	1.005942631E1	1.011588087E1
1.367928280E-1	1.674975902E-1	1.038485050E0	1.007856941E1	1.013331476E1
1.379887140E-1	1.579262912E-1	1.026520967E0	1.009531879E1	1.014860323E1
1.391845470E-1	1.507478207E-1	1.021735311E0	1.012164021E1	1.017419620E1
1.403804330E-1	1.555334777E-1	1.016949654E0	1.015035343E1	1.020235522E1
1.415763180E-1	1.603191197E-1	1.007378340E0	1.016949654E1	1.022052705E1
1.427722030E-1	1.603191197E-1	1.009771109E0	1.019103146E1	1.024219030E1
1.439680370E-1	1.459621787E-1	1.014556766E0	1.021256733E1	1.026387655E1
1.451639220E-1	1.363908947E-1	1.019342422E0	1.022692394E1	1.027850353E1
1.463598080E-1	1.411765367E-1	1.026520967E0	1.024367332E1	1.029594674E1
1.475556930E-1	1.483550072E-1	1.031306505E0	1.025803089E1	1.031080987E1
1.487515260E-1	1.411765367E-1	1.024128079E0	1.027478027E1	1.032665865E1
1.499474120E-1	1.268195957E-1	1.026520967E0	1.028674412E1	1.033861369E1
1.511432970E-1	1.076770201E-1	1.016949654E0	1.029153061E1	1.034221365E1
1.523391300E-1	1.004985496E-1	1.014556766E0	1.030827999E1	1.035857431E1
1.535350160E-1	1.052841991E-1	1.026520967E0	1.031785107E1	1.036932402E1
1.547309010E-1	9.571290761E-2	1.040877819E0	1.032742214E1	1.038018476E1
1.559267870E-1	8.853443712E-2	1.036092162E0	1.033460140E1	1.038678542E1
1.571226200E-1	7.178468257E-2	1.024128079E0	1.032981491E1	1.038070650E1
1.583185050E-1	5.503492057E-2	1.028913736E0	1.032263660E1	1.037393459E1
1.595143910E-1	4.546362907E-2	1.033699393E0	1.031785107E1	1.036960231E1
1.607102240E-1	2.871387079E-2	1.031306505E0	1.031545830E1	1.036692324E1
1.619061100E-1	9.571290575E-3	1.024128079E0	1.030588722E1	1.035665203E1
1.631019950E-1	-2.392822644E-3	1.019342422E0	1.028435135E1	1.033474467E1
1.642978800E-1	-2.392822690E-2	1.016949654E0	1.027238750E1	1.032263068E1
1.654937140E-1	-3.589234129E-2	1.016949654E0	1.026760197E1	1.031790313E1
1.666895990E-1	-2.871387079E-2	1.021735311E0	1.026042366E1	1.031121046E1
1.678854850E-1	-4.067798331E-2	1.031306505E0	1.025324535E1	1.030506129E1
1.690813700E-1	-6.221338734E-2	1.036092162E0	1.024845982E1	1.030088764E1
1.702772030E-1	-7.178468257E-2	1.038485050E0	1.024367332E1	1.029642887E1
1.714730890E-1	-7.417750359E-2	1.043270707E0	1.024128056E1	1.029454921E1
1.726689740E-1	-8.614161611E-2	1.048056364E0	1.022931671E1	1.028322726E1
1.738648080E-1	-9.571290761E-2	1.052842021E0	1.021256733E1	1.026714024E1
1.750606930E-1	-1.028913707E-1	1.067198873E0	1.020060253E1	1.025679248E1
1.762565780E-1	-1.028913707E-1	1.083948612E0	1.017906761E1	1.023713577E1
1.774524640E-1	-1.004985496E-1	1.095912814E0	1.015513897E1	1.021459604E1
1.786482970E-1	-9.810572863E-2	1.098305583E0	1.012881851E1	1.018866352E1
1.798441830E-1	-9.332008660E-2	1.100698471E0	1.010010433E1	1.016033234E1
1.810400680E-1	-8.135596663E-2	1.107876897E0	1.007378292E1	1.013484644E1
1.822359010E-1	-7.178468257E-2	1.110269666E0	1.005224800E1	1.011363148E1
1.834317870E-1	-6.699903309E-2	1.115055323E0	1.003071213E1	1.009272129E1
1.846276720E-1	-5.024927482E-2	1.124626637E0	1.000678444E1	1.006990789E1
1.858235580E-1	-2.632104978E-2	1.131805062E0	9.968499184E0	1.003257950E1
1.870194430E-1	-1.196411345E-2	1.141376376E0	9.932606697E0	9.997977744E0
1.882152760E-1	-7.178467698E-3	1.158126116E0	9.911071777E0	9.978509478E0
1.894111620E-1	-1.196411345E-2	1.162911773E0	9.889535904E0	9.957681825E0
1.906070470E-1	-1.914258115E-2	1.165304661E0	9.872786522E0	9.941338697E0
1.918028800E-1	-1.196411345E-2	1.170090318E0	9.846465111E0	9.915751594E0
1.929987660E-1	2.392822644E-3	1.182054400E0	9.815358162E0	9.886279087E0
1.941946510E-1	2.392822690E-2	1.203589797E0	9.786644936E0	9.860406688E0
1.953904850E-1	4.785645381E-2	1.217946768E0	9.765109062E0	9.840886117E0
1.965863700E-1	4.546362907E-2	1.225125194E0	9.748359680E0	9.825147080E0
1.977822550E-1	3.349951655E-2	1.239482164E0	9.724431038E0	9.803162615E0
1.989781410E-1	3.349951655E-2	1.239482164E0	9.705288887E0	9.784174499E0
2.001740260E-1	4.067798331E-2	1.241874933E0	9.690931320E0	9.770263963E0
2.013698600E-1	4.785645381E-2	1.251446247E0	9.676574707E0	9.757279642E0
2.025657450E-1	5.264209956E-2	1.261017561E0	9.657432556E0	9.739555434E0
2.037616300E-1	4.785645381E-2	1.272981644E0	9.635896683E0	9.719736487E0
2.049574640E-1	3.349951655E-2	1.277767301E0	9.607182503E0	9.691840235E0
2.061533490E-1	3.110669367E-2	1.275374413E0	9.573683739E0	9.658310817E0
2.073492350E-1	1.914258115E-2	1.277767301E0	9.556933403E0	9.641993144E0
2.085450680E-1	-2.392822644E-3	1.280160069E0	9.554540634E0	9.639920241E0
2.097409530E-1	-7.178467698E-3	1.275374413E0	9.556933403E0	9.641659997E0
2.109368390E-1	0.000000000E0	1.275374413E0	9.559326172E0	9.644029073E0
2.121327240E-1	-1.196411345E-2	1.270588875E0	9.554540634E0	9.638661004E0
2.133286100E-1	-3.110669367E-2	1.261017561E0	9.564111710E0	9.646935561E0
2.145244430E-1	-4.785645381E-2	1.265803218E0	9.580862045E0	9.664236419E0
2.157203280E-1	-6.699903309E-2	1.270588875E0	9.592825890E0	9.676837991E0
2.169162140E-1	-8.853443712E-2	1.265803218E0	9.609575272E0	9.692988860E0
2.181120470E-1	-1.076770201E-1	1.265803218E0	9.623932838E0	9.707416516E0
2.193079330E-1	-1.316052526E-1	1.251446247E0	9.628718376E0	9.710594998E0
2.205038180E-1	-1.507478207E-1	1.229910851E0	9.640682220E0	9.719987617E0
2.216996510E-1	-1.722832322E-1	1.229910851E0	9.671789169E0	9.751198283E0
2.228955370E-1	-1.962114573E-1	1.232303619E0	9.702896118E0	9.782804517E0
2.240914220E-1	-2.153540403E-1	1.217946768E0	9.719645500E0	9.798024308E0
2.252873080E-1	-2.512463629E-1	1.210768223E0	9.734002113E0	9.812231223E0
2.264831410E-1	-2.799602449E-1	1.208375454E0	9.750752449E0	9.829329697E0
2.276790260E-1	-3.014956415E-1	1.186840057E0	9.779465675E0	9.855832681E0
2.288749120E-1	-3.373879790E-1	1.162911773E0	9.812965393E0	9.887390163E0
2.300707970E-1	-3.565305769E-1	1.150947690E0	9.827322960E0	9.900912645E0
2.312666300E-1	-3.708875179E-1	1.143769264E0	9.844072342E0	9.917233785E0
2.324625160E-1	-3.876372576E-1	1.134197950E0	9.863214493E0	9.935777160E0
2.336584010E-1	-3.852444589E-1	1.124626637E0	9.884750366E0	9.955977509E0
2.348542350E-1	-3.924229145E-1	1.115055323E0	9.901499748E0	9.971812342E0
2.360501200E-1	-4.067798555E-1	1.117448211E0	9.920642853E0	9.991662272E0
2.372460050E-1	-4.187439680E-1	1.110269666E0	9.944570541E0	1.001511500E1
2.384418910E-1	-4.211367965E-1	1.100698471E0	9.963713646E0	1.003316914E1
2.396377240E-1	-4.163511395E-1	1.088734269E0	9.978070259E0	1.004592339E1
2.408336100E-1	-4.259224236E-1	1.079162955E0	9.990034103E0	1.005717575E1
2.420294950E-1	-4.498506486E-1	1.064806104E0	9.994820595E0	1.006144206E1
2.432253800E-1	-4.570291340E-1	1.064806104E0	1.000199890E1	1.006889615E1
2.444212140E-1	-4.474578202E-1	1.083948612E0	1.000678444E1	1.007526168E1
2.456170990E-1	-4.378865361E-1	1.086341500E0	1.001874828E1	1.008698169E1
2.468129850E-1	-4.474578202E-1	1.071984529E0	1.003549862E1	1.010250473E1
2.480088180E-1	-4.546363056E-1	1.062413216E0	1.003310490E1	1.009943612E1
2.492047030E-1	-4.498506486E-1	1.057627559E0	1.002592659E1	1.009158787E1
2.504005890E-1	-4.426721931E-1	1.045663476E0	1.002592659E1	1.009002353E1
2.515964740E-1	-4.235295951E-1	1.036092162E0	1.002114105E1	1.008345835E1
2.527923080E-1	-4.115654826E-1	1.028913736E0	1.001635551E1	1.007747128E1
2.539881930E-1	-4.067798555E-1	1.016949654E0	1.000917721E1	1.006892670E1
2.551840780E-1	-3.996013701E-1	1.004985452E0	9.992427826E0	1.005078558E1
2.563799640E-1	-3.900300860E-1	1.000199914E0	9.973284721E0	1.003089884E1
2.575757970E-1	-3.876372576E-1	1.002592683E0	9.949356079E0	1.000725442E1
2.587716830E-1	-3.876372576E-1	1.004985452E0	9.932606697E0	9.990842517E0
2.599675680E-1	-3.804588020E-1	1.004985452E0	9.918250084E0	9.976293369E0
2.611634010E-1	-3.756731451E-1	1.004985452E0	9.906285286E0	9.964216690E0
2.623592870E-1	-3.661018610E-1	1.016949654E0	9.889535904E0	9.948423873E0
2.635551720E-1	-3.613162339E-1	1.019342422E0	9.865608215E0	9.924708250E0
2.647510580E-1	-3.637090325E-1	1.012163997E0	9.846465111E0	9.905030812E0
2.659468910E-1	-3.613162339E-1	1.004985452E0	9.832108498E0	9.889939468E0
2.671427760E-1	-3.565305769E-1	9.954141974E-1	9.815358162E0	9.872143603E0
2.683386620E-1	-3.589234054E-1	9.978070259E-1	9.801001549E0	9.858198427E0
2.695345470E-1	-3.565305769E-1	1.009771109E0	9.784252167E0	9.842679625E0
2.707303800E-1	-3.493520916E-1	1.016949654E0	9.765109062E0	9.824132963E0
2.719262660E-1	-3.421736360E-1	1.016949654E0	9.738788605E0	9.797717738E0
2.731221510E-1	-3.254238665E-1	1.019342422E0	9.707681656E0	9.766475454E0
2.743179850E-1	-3.086741269E-1	1.019342422E0	9.686145782E0	9.744524555E0
2.755138700E-1	-3.182454109E-1	1.019342422E0	9.664610863E0	9.723427495E0
2.767097550E-1	-3.134597540E-1	1.019342422E0	9.635896683E0	9.694731604E0
2.779056410E-1	-2.991028428E-1	1.019342422E0	9.614361763E0	9.672873079E0
2.791014740E-1	-2.991028428E-1	1.014556766E0	9.590433121E0	9.648585149E0
2.802973600E-1	-3.038884699E-1	1.007378340E0	9.573683739E0	9.631333223E0
2.814932450E-1	-3.038884699E-1	9.954141974E-1	9.561718941E0	9.618194567E0
2.826891300E-1	-3.134597540E-1	9.834501147E-1	9.549755096E0	9.605376283E0
2.838849640E-1	-3.230310678E-1	9.858429432E-1	9.535398483E0	9.591666154E0
2.850808490E-1	-3.182454109E-1	9.858429432E-1	9.516255379E0	9.572475275E0
2.862767350E-1	-3.110669553E-1	9.906286001E-1	9.513862610E0	9.570354718E0
2.874725680E-1	-3.014956415E-1	9.954141974E-1	9.504291534E0	9.561030625E0
2.886684530E-1	-2.943171859E-1	9.858429432E-1	9.477970123E0	9.533647076E0
2.898643390E-1	-2.895315289E-1	9.786644578E-1	9.456435204E0	9.511350030E0
2.910602240E-1	-2.919243574E-1	9.762716293E-1	9.442078590E0	9.496903402E0
2.922560580E-1	-2.991028428E-1	9.786644578E-1	9.425328255E0	9.480720402E0
2.934519430E-1	-2.895315289E-1	9.954141974E-1	9.420542717E0	9.477410143E0
2.946478280E-1	-2.727817893E-1	1.009771109E0	9.415757179E0	9.473675678E0
2.958436620E-1	-2.608176768E-1	1.021735311E0	9.396614075E0	9.455597547E0
2.970395470E-1	-2.560320199E-1	1.033699393E0	9.382257462E0	9.442501888E0
2.982354330E-1	-2.560320199E-1	1.040877819E0	9.377471924E0	9.438535835E0
2.994313180E-1	-2.464607358E-1	1.043270707E0	9.377471924E0	9.438545245E0
3.006271510E-1	-2.297109663E-1	1.040877819E0	9.372686386E0	9.433103617E0
3.018230370E-1	-2.225325108E-1	1.045663476E0	9.358329773E0	9.419196832E0
3.030189220E-1	-1.986042857E-1	1.052842021E0	9.351150513E0	9.412328930E0
3.042148080E-1	-1.722832322E-1	1.052842021E0	9.351150513E0	9.411810333E0
3.054106410E-1	-1.603191197E-1	1.057627559E0	9.355937004E0	9.416890968E0
3.066065260E-1	-1.483550072E-1	1.062413216E0	9.363115311E0	9.424365197E0
3.078024120E-1	-1.459621787E-1	1.062413216E0	9.372686386E0	9.433836806E0
3.089982450E-1	-1.459621787E-1	1.071984529E0	9.370293617E0	9.432542513E0
3.101941300E-1	-1.387837082E-1	1.083948612E0	9.370293617E0	9.433801354E0
3.113900160E-1	-1.292124242E-1	1.081555843E0	9.379864693E0	9.442897889E0
3.125859010E-1	-1.172483116E-1	1.083948612E0	9.403793335E0	9.466785138E0
3.137817350E-1	-1.100698411E-1	1.086341500E0	9.430113792E0	9.493118527E0
3.149776200E-1	-1.076770201E-1	1.076770186E0	9.442078590E0	9.503887441E0
3.161735050E-1	-1.028913707E-1	1.069591761E0	9.449256897E0	9.510156101E0
3.173693390E-1	-9.092725813E-2	1.076770186E0	9.473184586E0	9.534617349E0
3.185652240E-1	-7.417750359E-2	1.081555843E0	9.497113228E0	9.558787842E0
3.197611100E-1	-5.503492057E-2	1.071984529E0	9.521040916E0	9.581356888E0
3.209569950E-1	-4.785645381E-2	1.069591761E0	9.544969559E0	9.604830069E0
3.221528280E-1	-4.307080805E-2	1.091127157E0	9.554540634E0	9.616738548E0
3.233487140E-1	-2.392822690E-2	1.103091240E0	9.561718941E0	9.625167632E0
3.245445990E-1	-1.674975827E-2	1.107876897E0	9.566504478E0	9.630455841E0
3.257404850E-1	-1.674975827E-2	1.112662554E0	9.566504478E0	9.631007551E0
3.269363180E-1	-1.914258115E-2	1.117448211E0	9.554540634E0	9.619683138E0
3.281322030E-1	-2.153540403E-2	1.122233868E0	9.542576790E0	9.608363254E0
3.293280890E-1	-1.196411345E-2	1.124626637E0	9.535398483E0	9.601497406E0
3.305239220E-1	-9.571290575E-3	1.127019525E0	9.530612946E0	9.597022858E0
3.317198080E-1	-1.435693540E-2	1.124626637E0	9.535398483E0	9.601500686E0
3.329156930E-1	-1.435693540E-2	1.119840980E0	9.549755096E0	9.615200068E0
3.341115780E-1	-7.178467698E-3	1.122233868E0	9.556933403E0	9.622600296E0
3.353074120E-1	-9.571290575E-3	1.119840980E0	9.568898201E0	9.634207192E0
3.365032970E-1	-2.153540403E-2	1.105484009E0	9.583254814E0	9.646830127E0
3.376991830E-1	-3.110669367E-2	1.100698471E0	9.595218658E0	9.658194751E0
3.388950680E-1	-3.110669367E-2	1.105484009E0	9.614361763E0	9.677758761E0
3.400909010E-1	-3.349951655E-2	1.103091240E0	9.621540070E0	9.684625228E0
3.412867870E-1	-5.503492057E-2	1.100698471E0	9.621540070E0	9.684451418E0
3.424826720E-1	-6.699903309E-2	1.091127157E0	9.633503914E0	9.695331093E0
3.436785050E-1	-6.699903309E-2	1.083948612E0	9.633503914E0	9.694525833E0
3.448743910E-1	-7.657032460E-2	1.086341500E0	9.635896683E0	9.697242172E0
3.460702760E-1	-8.135596663E-2	1.093519926E0	9.643074989E0	9.705220238E0
3.472661620E-1	-6.939185411E-2	1.095912814E0	9.640682220E0	9.703019829E0
3.484619950E-1	-6.221338734E-2	1.098305583E0	9.628718376E0	9.691355077E0
3.496578800E-1	-7.417750359E-2	1.100698471E0	9.616754532E0	9.679824748E0
3.508537660E-1	-9.332008660E-2	1.095912814E0	9.609575272E0	9.672314637E0
3.520495990E-1	-1.076770201E-1	1.091127157E0	9.609575272E0	9.671922752E0
3.532454850E-1	-1.172483116E-1	1.093519926E0	9.602396965E0	9.665172552E0
3.544413700E-1	-1.196411327E-1	1.095912814E0	9.595218658E0	9.658341473E0
3.556372550E-1	-1.316052526E-1	1.095912814E0	9.590433121E0	9.653742916E0
3.568330890E-1	-1.363908947E-1	1.098305583E0	9.592825890E0	9.656458263E0
3.580289740E-1	-1.292124242E-1	1.088734269E0	9.592825890E0	9.655275589E0
3.592248600E-1	-1.363908947E-1	1.081555843E0	9.585647583E0	9.647435157E0
3.604207450E-1	-1.579262912E-1	1.083948612E0	9.580862045E0	9.643277598E0
3.616165780E-1	-1.651047617E-1	1.081555843E0	9.576076508E0	9.638374547E0
3.628124640E-1	-1.627119333E-1	1.064806104E0	9.571290970E0	9.631713142E0
3.640083490E-1	-1.603191197E-1	1.060020447E0	9.576076508E0	9.635900936E0
3.652041830E-1	-1.531406492E-1	1.076770186E0	9.568898201E0	9.630508755E0
3.664000680E-1	-1.555334777E-1	1.088734269E0	9.552147865E0	9.615251521E0
3.675959530E-1	-1.603191197E-1	1.095912814E0	9.540184021E0	9.604261464E0
3.687918390E-1	-1.651047617E-1	1.098305583E0	9.523433685E0	9.587978092E0
3.699876720E-1	-1.627119333E-1	1.100698471E0	9.511469841E0	9.576328672E0
3.711835580E-1	-1.674975902E-1	1.105484009E0	9.497113228E0	9.562704115E0
3.723794430E-1	-1.794617027E-1	1.107876897E0	9.482755661E0	9.548939870E0
3.735752760E-1	-1.938186288E-1	1.110269666E0	9.477970123E0	9.544746306E0
3.747711620E-1	-2.009970993E-1	1.117448211E0	9.466006279E0	9.533853639E0
3.759670470E-1	-1.962114573E-1	1.129412293E0	9.439684868E0	9.509033677E0
3.771629330E-1	-1.962114573E-1	1.141376376E0	9.427721024E0	9.498587404E0
3.783587660E-1	-2.081755698E-1	1.136590719E0	9.420542717E0	9.491143272E0
3.795546510E-1	-2.201396823E-1	1.131805062E0	9.408578873E0	9.478966219E0
3.807505370E-1	-2.177468538E-1	1.134197950E0	9.401400566E0	9.472072175E0
3.819464220E-1	-2.105683982E-1	1.138983607E0	9.394221306E0	9.465358770E0
3.831422550E-1	-1.962114573E-1	1.141376376E0	9.384650230E0	9.455839408E0
3.843381410E-1	-2.009970993E-1	1.143769264E0	9.375079155E0	9.446730499E0
3.855340260E-1	-2.249253243E-1	1.153340459E0	9.355937004E0	9.429440219E0
3.867299120E-1	-2.344966233E-1	1.162911773E0	9.341579437E0	9.416605484E0
3.879257450E-1	-2.297109663E-1	1.160519004E0	9.339186668E0	9.413818519E0
3.891216300E-1	-2.297109663E-1	1.170090318E0	9.339186668E0	9.415003245E0
3.903175160E-1	-2.368894368E-1	1.184447169E0	9.348757744E0	9.426468217E0
3.915133490E-1	-2.440679073E-1	1.182054400E0	9.355937004E0	9.433471205E0
3.927092350E-1	-2.536391914E-1	1.182054400E0	9.348757744E0	9.426603672E0
3.939051200E-1	-2.679961324E-1	1.194018483E0	9.336793900E0	9.416646026E0
3.951010050E-1	-2.727817893E-1	1.215553880E0	9.327222824E0	9.410051368E0
3.962968390E-1	-2.656033039E-1	1.225125194E0	9.334401131E0	9.418201597E0
3.974927240E-1	-2.656033039E-1	1.227517962E0	9.339186668E0	9.423255971E0
3.986886100E-1	-2.727817893E-1	1.244267821E0	9.343972206E0	9.430399191E0
3.998844430E-1	-2.775674164E-1	1.258624673E0	9.360722542E0	9.449037318E0
4.010803280E-1	-2.799602449E-1	1.263410330E0	9.379864693E0	9.468708732E0
4.022762140E-1	-2.823530734E-1	1.263410330E0	9.391828537E0	9.480631423E0
4.034720990E-1	-2.775674164E-1	1.261017561E0	9.413364410E0	9.501507169E0
4.046679330E-1	-2.751746178E-1	1.261017561E0	9.437292099E0	9.525144016E0
4.058638180E-1	-2.751746178E-1	1.265803218E0	9.454042435E0	9.542373772E0
4.070597030E-1	-2.703889608E-1	1.270588875E0	9.466006279E0	9.554725593E0
4.082555370E-1	-2.560320199E-1	1.272981644E0	9.477970123E0	9.566501572E0
4.094514220E-1	-2.368894368E-1	1.277767301E0	9.497113228E0	9.585612424E0
4.106473080E-1	-2.153540403E-1	1.284945726E0	9.516255379E0	9.605028856E0
4.118431930E-1	-2.009970993E-1	1.299302697E0	9.518648148E0	9.609019195E0
4.130390260E-1	-2.009970993E-1	1.318445325E0	9.525827408E0	9.618736181E0
4.142349120E-1	-2.009970993E-1	1.325623751E0	9.540184021E0	9.633939450E0
4.154307970E-1	-1.938186288E-1	1.320838094E0	9.547362328E0	9.640244102E0
4.166266830E-1	-1.818545163E-1	1.323230863E0	9.561718941E0	9.654557477E0
4.178225160E-1	-1.746760458E-1	1.325623751E0	9.573683739E0	9.666602835E0
4.190184010E-1	-1.698904037E-1	1.330409408E0	9.578469276E0	9.671914269E0
4.202142870E-1	-1.579262912E-1	1.328016520E0	9.590433121E0	9.683231694E0
4.214101200E-1	-1.483550072E-1	1.313659668E0	9.611968994E0	9.702456332E0
4.226060050E-1	-1.483550072E-1	1.296909928E0	9.638289452E0	9.726284395E0
4.238018910E-1	-1.435693651E-1	1.289731383E0	9.657432556E0	9.744230230E0
4.249977760E-1	-1.363908947E-1	1.284945726E0	9.676574707E0	9.762468236E0
4.261936100E-1	-1.196411327E-1	1.282552958E0	9.695717812E0	9.780909977E0
4.273894950E-1	-9.810572863E-2	1.282552958E0	9.714859962E0	9.799646469E0
4.285853800E-1	-8.853443712E-2	1.280160069E0	9.738788605E0	9.822965522E0
4.297812140E-1	-7.896314561E-2	1.270588875E0	9.760323524E0	9.842994797E0
4.309770990E-1	-7.657032460E-2	1.270588875E0	9.774680138E0	9.857212126E0
4.321729850E-1	-6.699903309E-2	1.282552958E0	9.793823242E0	9.877672026E0
4.333688700E-1	-4.546362907E-2	1.277767301E0	9.820143700E0	9.903028754E0
4.345647030E-1	-2.871387079E-2	1.261017561E0	9.841679573E0	9.922179528E0
4.357605890E-1	-1.674975827E-2	1.258624673E0	9.851250648E0	9.931342103E0
4.369564740E-1	-7.178467698E-3	1.261017561E0	9.858428955E0	9.938754363E0
4.381523600E-1	1.674975827E-2	1.268195987E0	9.870393753E0	9.951546335E0
4.393481930E-1	3.349951655E-2	1.268195987E0	9.875179291E0	9.956335134E0
4.405440780E-1	3.110669367E-2	1.258624673E0	9.877572060E0	9.957486304E0
4.417399640E-1	3.110669367E-2	1.256231904E0	9.879964828E0	9.959557783E0
4.429358490E-1	3.828516230E-2	1.251446247E0	9.889535904E0	9.968475503E0
4.441316830E-1	5.503492057E-2	1.249053478E0	9.899106979E0	9.977749367E0
4.453275680E-1	6.460621208E-2	1.253839016E0	9.894321442E0	9.973659460E0
4.465234530E-1	6.460621208E-2	1.253839016E0	9.891928673E0	9.971285730E0
4.477192870E-1	6.221338734E-2	1.251446247E0	9.889535904E0	9.968596120E0
4.489151720E-1	6.699903309E-2	1.253839016E0	9.879964828E0	9.959433024E0
4.501110580E-1	6.699903309E-2	1.244267821E0	9.875179291E0	9.953484682E0
4.513068910E-1	5.503492057E-2	1.222732425E0	9.860821724E0	9.936493773E0
4.525027760E-1	5.024927482E-2	1.205982566E0	9.851250648E0	9.924921072E0
4.536986620E-1	5.264209956E-2	1.210768223E0	9.844072342E0	9.918391561E0
4.548945470E-1	5.742774159E-2	1.217946768E0	9.841679573E0	9.916922360E0
4.560903800E-1	5.742774159E-2	1.215553880E0	9.841679573E0	9.916628762E0
4.572862660E-1	5.742774159E-2	1.210768223E0	9.834501266E0	9.908918851E0
4.584821510E-1	6.699903309E-2	1.205982566E0	9.827322960E0	9.901270594E0
4.596779850E-1	7.417750359E-2	1.203589797E0	9.834501266E0	9.908155523E0
4.608738700E-1	8.614161611E-2	1.210768223E0	9.846465111E0	9.921000718E0
4.620697550E-1	1.028913707E-1	1.220339537E0	9.858428955E0	9.934205388E0
4.632656410E-1	1.148554832E-1	1.227517962E0	9.851250648E0	9.928098079E0
4.644614740E-1	1.292124242E-1	1.225125194E0	9.834501266E0	9.911359279E0
4.656573600E-1	1.459621787E-1	1.217946768E0	9.822537422E0	9.898835320E0
4.668532450E-1	1.651047617E-1	1.215553880E0	9.801001549E0	9.877472459E0
4.680490780E-1	1.866401732E-1	1.210768223E0	9.779465675E0	9.855898901E0
4.692449640E-1	1.986042857E-1	1.191625714E0	9.755537987E0	9.830052742E0
4.704408490E-1	2.033899277E-1	1.174875975E0	9.741181374E0	9.813883817E0
4.716367350E-1	2.033899277E-1	1.167697430E0	9.741181374E0	9.813027020E0
4.728325680E-1	2.057827413E-1	1.162911773E0	9.734002113E0	9.805381557E0
4.740284530E-1	2.105683982E-1	1.167697430E0	9.719645500E0	9.791800906E0
4.752243390E-1	2.153540403E-1	1.170090318E0	9.719645500E0	9.792190631E0
4.764201720E-1	2.177468538E-1	1.174875975E0	9.722038269E0	9.795191440E0
4.776160580E-1	2.105683982E-1	1.170090318E0	9.722038269E0	9.794461624E0
4.788119430E-1	2.057827413E-1	1.160519004E0	9.724431038E0	9.795596455E0
4.800078280E-1	2.033899277E-1	1.160519004E0	9.734002113E0	9.805048137E0
4.812036620E-1	2.033899277E-1	1.155733347E0	9.765109062E0	9.835366899E0
4.823995470E-1	2.033899277E-1	1.150947690E0	9.786644936E0	9.856189281E0
4.835954330E-1	2.057827413E-1	1.150947690E0	9.796216011E0	9.865742509E0
4.847913180E-1	1.986042857E-1	1.141376376E0	9.815358162E0	9.883493286E0
4.859871510E-1	1.938186288E-1	1.134197950E0	9.839286804E0	9.906338146E0
4.871830370E-1	1.962114573E-1	1.127019525E0	9.858428955E0	9.924580264E0
4.883789220E-1	1.962114573E-1	1.105484009E0	9.870393753E0	9.934045836E0
4.895748080E-1	2.033899277E-1	1.095912814E0	9.875179291E0	9.937885006E0
4.907706410E-1	2.105683982E-1	1.088734269E0	9.899106979E0	9.961024061E0
4.919665260E-1	2.153540403E-1	1.064806104E0	9.932606697E0	9.991839931E0
4.931624120E-1	2.081755698E-1	1.048056364E0	9.961320877E0	1.001846659E1
4.943582450E-1	2.057827413E-1	1.050449133E0	9.992427826E0	1.004959719E1
4.955541300E-1	2.105683982E-1	1.052842021E0	1.001874828E1	1.007611694E1
4.967500160E-1	1.986042857E-1	1.045663476E0	1.003549862E1	1.009178321E1
4.979459010E-1	1.818545163E-1	1.036092162E0	1.005464077E1	1.010951824E1
4.991417350E-1	1.722832322E-1	1.038485050E0	1.007139015E1	1.012625460E1
5.003376200E-1	1.651047617E-1	1.038485050E0	1.008335495E1	1.013803521E1
5.015335050E-1	1.507478207E-1	1.038485050E0	1.010010433E1	1.015447111E1
5.027293390E-1	1.435693651E-1	1.028913736E0	1.012642574E1	1.017957632E1
5.039252240E-1	1.435693651E-1	1.012163997E0	1.015035343E1	1.020170392E1
5.051211100E-1	1.363908947E-1	1.004985452E0	1.016710377E1	1.021756318E1
5.063169950E-1	1.363908947E-1	1.000199914E0	1.018624592E1	1.023614225E1
5.075128280E-1	1.316052526E-1	9.978070259E-1	1.020060253E1	1.025013321E1
5.087087140E-1	1.196411327E-1	9.930213690E-1	1.021496010E1	1.026381095E1
5.099045990E-1	1.124626622E-1	9.906286001E-1	1.023649502E1	1.028493185E1
5.111004330E-1	9.810572863E-2	9.882357717E-1	1.025563812E1	1.030360849E1
5.122963180E-1	8.135596663E-2	9.858429432E-1	1.026760197E1	1.031514204E1
5.134922030E-1	8.374879509E-2	9.786644578E-1	1.028195858E1	1.032876906E1
5.146880890E-1	7.896314561E-2	9.714859724E-1	1.028913784E1	1.033520090E1
5.158839220E-1	6.939185411E-2	9.714859724E-1	1.029870892E1	1.034466073E1
5.170798080E-1	5.982056633E-2	9.738788009E-1	1.030588722E1	1.035197227E1
5.182756930E-1	5.024927482E-2	9.906286001E-1	1.030827999E1	1.035589235E1
5.194715260E-1	4.067798331E-2	9.930213690E-1	1.031545830E1	1.036322469E1
5.206674120E-1	3.110669367E-2	9.762716293E-1	1.032024384E1	1.036636420E1
5.218632970E-1	2.632104978E-2	9.762716293E-1	1.030588722E1	1.035205828E1
5.230591830E-1	1.674975827E-2	9.762716293E-1	1.029153061E1	1.033774584E1
5.242550160E-1	9.571290575E-3	9.667003751E-1	1.028195858E1	1.032730717E1
5.254509010E-1	-2.392822644E-3	9.643075466E-1	1.026760197E1	1.031278551E1
5.266467870E-1	-9.571290575E-3	9.619147182E-1	1.025085258E1	1.029588997E1
5.278426200E-1	-7.178467698E-3	9.595218897E-1	1.023170948E1	1.027660511E1
5.290385050E-1	-1.435693540E-2	9.595218897E-1	1.020538902E1	1.025040748E1
5.302343910E-1	-1.196411345E-2	9.690931439E-1	1.018146038E1	1.022748357E1
5.314302760E-1	0.000000000E0	9.786644578E-1	1.016231823E1	1.020933376E1
5.326261100E-1	7.178467698E-3	9.834501147E-1	1.013599682E1	1.018359746E1
5.338219950E-1	1.435693540E-2	9.882357717E-1	1.011446095E1	1.016263432E1
5.350178800E-1	1.914258115E-2	9.954141974E-1	1.009771156E1	1.014667407E1
5.362137140E-1	2.392822690E-2	9.954141974E-1	1.005942631E1	1.010858445E1
5.374095990E-1	3.349951655E-2	1.004985452E0	1.002592659E1	1.007622558E1
5.386054850E-1	4.785645381E-2	1.024128079E0	1.000439167E1	1.005678782E1
5.398013700E-1	5.742774159E-2	1.036092162E0	9.968499184E0	1.002236304E1
5.409972030E-1	5.982056633E-2	1.052842021E0	9.930213928E0	9.986050445E0
5.421930890E-1	5.982056633E-2	1.074377418E0	9.899106979E0	9.957418557E0
5.433889740E-1	5.503492057E-2	1.098305583E0	9.865608215E0	9.926707886E0
5.445848600E-1	5.264209956E-2	1.117448211E0	9.834501266E0	9.897922856E0
5.457806930E-1	5.742774159E-2	1.119840980E0	9.793823242E0	9.857804799E0
5.469765780E-1	5.503492057E-2	1.127019525E0	9.748359680E0	9.813445792E0
5.481724640E-1	5.024927482E-2	1.134197950E0	9.712467194E0	9.778596472E0
5.493682970E-1	4.785645381E-2	1.141376376E0	9.681360245E0	9.748526374E0
5.505641830E-1	5.024927482E-2	1.158126116E0	9.650253296E0	9.719628067E0
5.517600680E-1	6.460621208E-2	1.172483087E0	9.626325607E0	9.697681952E0
5.529559010E-1	8.135596663E-2	1.174875975E0	9.607182503E0	9.679096445E0
5.541517870E-1	8.614161611E-2	1.182054400E0	9.588040352E0	9.661013962E0
5.553476720E-1	8.614161611E-2	1.201196909E0	9.566504478E0	9.642007173E0
5.565435580E-1	8.374879509E-2	1.213161111E0	9.537791252E0	9.615000557E0
5.577393910E-1	7.417750359E-2	1.213161111E0	9.509077072E0	9.586438804E0
5.589352760E-1	6.460621208E-2	1.222732425E0	9.480362892E0	9.559107129E0
5.601311620E-1	6.221338734E-2	1.241874933E0	9.449256897E0	9.530717694E0
5.613270470E-1	6.460621208E-2	1.251446247E0	9.415757179E0	9.498777549E0
5.625228800E-1	5.982056633E-2	1.251446247E0	9.387042999E0	9.470283654E0
5.637187660E-1	5.742774159E-2	1.258624673E0	9.355937004E0	9.440391477E0
5.649146510E-1	5.024927482E-2	1.263410330E0	9.315258980E0	9.400679790E0
5.661105370E-1	3.828516230E-2	1.268195987E0	9.276973724E0	9.363334251E0
5.673063700E-1	3.828516230E-2	1.275374413E0	9.255437851E0	9.342974658E0
5.685022550E-1	3.828516230E-2	1.275374413E0	9.238688469E0	9.326382486E0
5.696981410E-1	3.110669367E-2	1.292124271E0	9.214759827E0	9.304963806E0
5.708939740E-1	1.196411345E-2	1.306481123E0	9.190832138E0	9.283233890E0
5.720898600E-1	-1.435693540E-2	1.306481123E0	9.174081802E0	9.266653979E0
5.732857450E-1	-2.871387079E-2	1.306481123E0	9.162117958E0	9.254843213E0
5.744816300E-1	-2.632104978E-2	1.299302697E0	9.152546883E0	9.244349341E0
5.756774640E-1	-2.871387079E-2	1.287338614E0	9.145368576E0	9.235574242E0
5.768733490E-1	-4.546362907E-2	1.272981644E0	9.140582085E0	9.228910556E0
5.780692350E-1	-5.982056633E-2	1.272981644E0	9.135796547E0	9.224252778E0
5.792650680E-1	-7.178468257E-2	1.272981644E0	9.138189316E0	9.226707933E0
5.804609530E-1	-9.092725813E-2	1.258624673E0	9.142974854E0	9.229647502E0
5.816568390E-1	-1.148554832E-1	1.249053478E0	9.142974854E0	9.228613956E0
5.828527240E-1	-1.411765367E-1	1.246660590E0	9.133403778E0	9.219173391E0
5.840485580E-1	-1.579262912E-1	1.249053478E0	9.135796547E0	9.222139332E0
5.852444430E-1	-1.794617027E-1	1.244267821E0	9.138189316E0	9.224256766E0
5.864403280E-1	-1.890329868E-1	1.234696507E0	9.135796547E0	9.220791044E0
5.876361620E-1	-1.986042857E-1	1.225125194E0	9.131011009E0	9.214973546E0
5.888320470E-1	-2.177468538E-1	1.213161111E0	9.126225471E0	9.209080569E0
5.900279330E-1	-2.273181528E-1	1.208375454E0	9.131011009E0	9.213425358E0
5.912238180E-1	-2.225325108E-1	1.201196909E0	9.131011009E0	9.212369770E0
5.924196510E-1	-2.273181528E-1	1.189232826E0	9.133403778E0	9.213306292E0
5.936155370E-1	-2.416750938E-1	1.177268744E0	9.142974854E0	9.221624462E0
5.948114220E-1	-2.464607358E-1	1.177268744E0	9.157332420E0	9.235986230E0
5.960073080E-1	-2.560320199E-1	1.172483087E0	9.176474571E0	9.254618012E0
5.972031410E-1	-2.584248483E-1	1.167697430E0	9.188439369E0	9.265944028E0
5.983990260E-1	-2.512463629E-1	1.160519004E0	9.207581520E0	9.283829304E0
5.995949120E-1	-2.584248483E-1	1.153340459E0	9.217152596E0	9.292625010E0
6.007907450E-1	-2.608176768E-1	1.165304661E0	9.219545364E0	9.296557295E0
6.019866300E-1	-2.608176768E-1	1.165304661E0	9.224330902E0	9.301303210E0
6.031825160E-1	-2.727817893E-1	1.162911773E0	9.226723671E0	9.303719869E0
6.043784010E-1	-2.727817893E-1	1.160519004E0	9.229117393E0	9.305795083E0
6.055742350E-1	-2.656033039E-1	1.153340459E0	9.231510162E0	9.307068239E0
6.067701200E-1	-2.656033039E-1	1.155733347E0	9.231510162E0	9.307365071E0
6.079660050E-1	-2.656033039E-1	1.146162033E0	9.236295700E0	9.310928567E0
6.091618390E-1	-2.703889608E-1	1.136590719E0	9.243474007E0	9.317014563E0
6.103577240E-1	-2.632105052E-1	1.131805062E0	9.241081238E0	9.313852313E0
6.115536100E-1	-2.584248483E-1	1.129412293E0	9.233902931E0	9.306305329E0
6.127494950E-1	-2.512463629E-1	1.131805062E0	9.226723671E0	9.299276162E0
6.139453280E-1	-2.368894368E-1	1.117448211E0	9.226723671E0	9.297162837E0
6.151412140E-1	-2.368894368E-1	1.112662554E0	9.233902931E0	9.303714200E0
6.163370990E-1	-2.464607358E-1	1.119840980E0	9.241081238E0	9.311947656E0
6.175329330E-1	-2.536391914E-1	1.129412293E0	9.238688469E0	9.310922059E0
6.187288180E-1	-2.488535494E-1	1.134197950E0	9.248259544E0	9.320871079E0
6.199247030E-1	-2.392822653E-1	1.119840980E0	9.257830620E0	9.328382904E0
6.211205890E-1	-2.344966233E-1	1.122233868E0	9.272188187E0	9.342797830E0
6.223164220E-1	-2.273181528E-1	1.136590719E0	9.293723106E0	9.365724808E0
6.235123080E-1	-2.249253243E-1	1.136590719E0	9.320044518E0	9.391786820E0
6.247081930E-1	-2.225325108E-1	1.131805062E0	9.351150513E0	9.422023102E0
6.259040260E-1	-2.273181528E-1	1.119840980E0	9.372686386E0	9.442084910E0
6.270999120E-1	-2.440679073E-1	1.122233868E0	9.399007797E0	9.468913643E0
6.282957970E-1	-2.560320199E-1	1.127019525E0	9.427721024E0	9.498297169E0
6.294916830E-1	-2.608176768E-1	1.127019525E0	9.446864128E0	9.517428262E0
6.306875160E-1	-2.584248483E-1	1.134197950E0	9.468399048E0	9.539589557E0
6.318834010E-1	-2.679961324E-1	1.136590719E0	9.494720459E0	9.566262435E0
6.330792870E-1	-2.823530734E-1	1.138983607E0	9.521040916E0	9.593082250E0
6.342759010E-1	-2.847459018E-1	1.129412293E0	9.537791252E0	9.608647893E0
6.354710050E-1	-2.895315289E-1	1.117448211E0	9.561718941E0	9.631146770E0
6.366668910E-1	-2.943171859E-1	1.122233868E0	9.595218658E0	9.665104891E0
6.378627760E-1	-2.967100143E-1	1.124626637E0	9.621540070E0	9.691586826E0
6.390586100E-1	-2.991028428E-1	1.131805062E0	9.650253296E0	9.720999634E0
6.402544950E-1	-3.038884699E-1	1.131805062E0	9.678967476E0	9.749653445E0
6.414503800E-1	-3.134597540E-1	1.122233868E0	9.707681656E0	9.777358999E0
6.426462140E-1	-3.182454109E-1	1.122233868E0	9.738788605E0	9.808399078E0
6.438420990E-1	-3.206382394E-1	1.112662554E0	9.762716293E0	9.831147251E0
6.450379850E-1	-3.182454109E-1	1.098305583E0	9.777072906E0	9.843714234E0
6.462338700E-1	-3.086741269E-1	1.098305583E0	9.808179855E0	9.874307416E0
6.474297030E-1	-3.230310678E-1	1.098305583E0	9.848857880E0	9.915171494E0
6.486255890E-1	-3.397808075E-1	1.091127157E0	9.875179291E0	9.941085227E0
6.498214740E-1	-3.302095234E-1	1.079162955E0	9.899106979E0	9.963229898E0
6.510173080E-1	-3.182454109E-1	1.076770186E0	9.923035622E0	9.986358201E0
6.522131930E-1	-3.062812984E-1	1.074377418E0	9.946963310E0	1.000950419E1
6.534090780E-1	-3.014956415E-1	1.074377418E0	9.970891953E0	1.003313873E1
6.546049640E-1	-3.110669553E-1	1.086341500E0	9.994820595E0	1.005849587E1
6.558007970E-1	-3.062812984E-1	1.088734269E0	1.000678444E1	1.007049578E1
6.569966830E-1	-2.943171859E-1	1.081555843E0	1.001396275E1	1.007649917E1
6.581925680E-1	-2.895315289E-1	1.083948612E0	1.001874828E1	1.008137343E1
6.593884010E-1	-2.823530734E-1	1.088734269E0	1.002353382E1	1.008644119E1
6.605842870E-1	-2.679961324E-1	1.095912814E0	1.001874828E1	1.008207141E1
6.617801720E-1	-2.536391914E-1	1.103091240E0	1.000917721E1	1.007297233E1
6.629760580E-1	-2.488535494E-1	1.103091240E0	9.994820595E0	1.005858723E1
6.641718910E-1	-2.488535494E-1	1.112662554E0	9.975677490E0	1.004062187E1
6.653677760E-1	-2.368894368E-1	1.127019525E0	9.966106415E0	1.003242576E1
6.665636620E-1	-2.249253243E-1	1.143769264E0	9.958928108E0	1.002691621E1
6.677594950E-1	-2.201396823E-1	1.158126116E0	9.954142570E0	1.002370550E1
6.689553800E-1	-2.033899277E-1	1.167697430E0	9.939785004E0	1.001020533E1
6.701512660E-1	-2.009970993E-1	1.182054400E0	9.920642853E0	9.992837788E0
6.713471510E-1	-1.962114573E-1	1.191625714E0	9.908679008E0	9.982003330E0
6.725429850E-1	-1.674975902E-1	1.201196909E0	9.903892517E0	9.977876350E0
6.737388700E-1	-1.387837082E-1	1.213161111E0	9.884750366E0	9.959885070E0
6.749347550E-1	-9.810572863E-2	1.220339537E0	9.865608215E0	9.941281546E0
6.761306410E-1	-5.503492057E-2	1.225125194E0	9.844072342E0	9.920167380E0
6.773264740E-1	-2.153540403E-2	1.234696507E0	9.815358162E0	9.892734459E0
6.785223600E-1	4.785645287E-3	1.234696507E0	9.784252167E0	9.861850173E0
6.797182450E-1	2.392822690E-2	1.234696507E0	9.745966911E0	9.823895310E0
6.809140780E-1	4.785645381E-2	1.253839016E0	9.705288887E0	9.786063299E0
6.821099640E-1	6.699903309E-2	1.282552958E0	9.671789169E0	9.756686768E0
6.833058490E-1	7.657032460E-2	1.306481123E0	9.640682220E0	9.729106311E0
6.845017350E-1	9.092725813E-2	1.330409408E0	9.607182503E0	9.699289283E0
6.856975680E-1	1.028913707E-1	1.351944804E0	9.580862045E0	9.676324660E0
6.868934530E-1	1.100698411E-1	1.363908887E0	9.559326172E0	9.656763416E0
6.880893390E-1	1.100698411E-1	1.375872970E0	9.537791252E0	9.637147076E0
6.892851720E-1	1.028913707E-1	1.383051515E0	9.513862610E0	9.614416253E0
6.904810580E-1	9.810572863E-2	1.387837172E0	9.499505997E0	9.600850532E0
6.916769430E-1	9.571290761E-2	1.392622828E0	9.477970123E0	9.580212783E0
6.928727760E-1	9.332008660E-2	1.402194023E0	9.461220741E0	9.565017231E0
6.940686620E-1	9.332008660E-2	1.418943882E0	9.449256897E0	9.555656246E0
6.952645470E-1	7.896314561E-2	1.423729420E0	9.434899330E0	9.542042025E0
6.964604330E-1	6.221338734E-2	1.423729420E0	9.430113792E0	9.537186278E0
6.976562660E-1	4.546362907E-2	1.423729420E0	9.425328255E0	9.532359892E0
6.988521510E-1	4.067798331E-2	1.423729420E0	9.418149948E0	9.525240606E0
7.000480370E-1	2.632104978E-2	1.423729420E0	9.403793335E0	9.510995076E0
7.012439220E-1	7.178467698E-3	1.423729420E0	9.389435768E0	9.496765820E0
7.024397550E-1	2.392822644E-3	1.423729420E0	9.382257462E0	9.489666288E0
7.036356410E-1	-2.153540403E-2	1.421336651E0	9.382257462E0	9.489331732E0
7.048315260E-1	-3.828516230E-2	1.409372568E0	9.379864693E0	9.485233705E0
7.060273600E-1	-4.785645381E-2	1.406979680E0	9.382257462E0	9.487288187E0
7.072232450E-1	-7.178468257E-2	1.395015597E0	9.394221306E0	9.497505752E0
7.084191300E-1	-1.028913707E-1	1.368694544E0	9.410971642E0	9.510536190E0
7.096150160E-1	-1.172483116E-1	1.361516118E0	9.434899330E0	9.533351912E0
7.108108490E-1	-1.172483116E-1	1.359123230E0	9.463613510E0	9.561430008E0
7.120067350E-1	-1.244267747E-1	1.359123230E0	9.504291534E0	9.601783977E0
7.132026200E-1	-1.292124242E-1	1.356730461E0	9.552147865E0	9.648882953E0
7.143984530E-1	-1.435693651E-1	1.344766378E0	9.597611427E0	9.692427657E0
7.155943390E-1	-1.555334777E-1	1.320838094E0	9.638289452E0	9.729615999E0
7.167902240E-1	-1.555334777E-1	1.299302697E0	9.686145782E0	9.774139260E0
7.179861100E-1	-1.579262912E-1	1.282552958E0	9.736394882E0	9.821775201E0
7.191819430E-1	-1.531406492E-1	1.268195987E0	9.779465675E0	9.862541357E0
7.203778280E-1	-1.387837082E-1	1.249053478E0	9.815358162E0	9.895486413E0
7.215737140E-1	-1.292124242E-1	1.225125194E0	9.851250648E0	9.927978995E0
7.227695470E-1	-1.268195957E-1	1.203589797E0	9.894321442E0	9.968064426E0
7.239654330E-1	-1.244267747E-1	1.179661512E0	9.937392235E0	1.000793924E1
7.251613180E-1	-1.244267747E-1	1.165304661E0	9.982855797E0	1.005140920E1
7.263571510E-1	-1.220339537E-1	1.155733347E0	1.003310490E1	1.010018840E1
7.275530370E-1	-1.124626622E-1	1.138983607E0	1.007617569E1	1.014096879E1
7.287489220E-1	-1.076770201E-1	1.122233868E0	1.010488987E1	1.016758587E1
7.299448080E-1	-9.810572863E-2	1.095912814E0	1.012403297E1	1.018364833E1
7.311406410E-1	-9.332008660E-2	1.067198873E0	1.015513897E1	1.021148714E1
7.323365260E-1	-9.092725813E-2	1.038485050E0	1.019103146E1	1.024421013E1
7.335324120E-1	-9.092725813E-2	1.012163997E0	1.022453117E1	1.027491029E1
7.347282970E-1	-7.657032460E-2	9.834501147E-1	1.025563812E1	1.030296804E1
7.359241300E-1	-5.742774159E-2	9.643075466E-1	1.027717304E1	1.032247416E1
7.371200160E-1	-4.307080805E-2	9.547362328E-1	1.030110168E1	1.034534061E1
7.383159010E-1	-2.632104978E-2	9.379864931E-1	1.033699417E1	1.037949710E1
7.395117350E-1	-2.392822644E-3	9.164510965E-1	1.036570740E1	1.040614137E1
7.407076200E-1	1.674975827E-2	8.829515576E-1	1.038245773E1	1.041994782E1
7.419035050E-1	2.871387079E-2	8.662018180E-1	1.039202881E1	1.042810591E1
7.430993910E-1	4.546362907E-2	8.542376757E-1	1.039920712E1	1.043433264E1
7.442952240E-1	6.460621208E-2	8.422735929E-1	1.040638542E1	1.044061571E1
7.454911100E-1	8.374879509E-2	8.494520187E-1	1.041117096E1	1.044610278E1
7.466869950E-1	8.374879509E-2	8.566305041E-1	1.040877819E1	1.044430434E1
7.478828280E-1	8.614161611E-2	8.494520187E-1	1.040159988E1	1.043658322E1
7.490787140E-1	9.332008660E-2	8.374879360E-1	1.040159988E1	1.043567798E1
7.502745990E-1	9.092725813E-2	8.374879360E-1	1.039920712E1	1.043327189E1
7.514704850E-1	1.052841991E-1	8.398807645E-1	1.038963604E1	1.042405974E1
7.526663180E-1	1.244267747E-1	8.446664214E-1	1.037288570E1	1.040796336E1
7.538622030E-1	1.363908947E-1	8.518448472E-1	1.035135078E1	1.038723761E1
7.550580890E-1	1.579262912E-1	8.470591903E-1	1.032742214E1	1.036330536E1
7.562539740E-1	1.722832322E-1	8.327022791E-1	1.030827999E1	1.034329304E1
7.574498080E-1	1.746760458E-1	8.255237937E-1	1.029631615E1	1.033083382E1
7.586456930E-1	1.770688742E-1	8.303094506E-1	1.027956581E1	1.031456448E1
7.598415780E-1	1.746760458E-1	8.327022791E-1	1.025563812E1	1.029087062E1
7.610374120E-1	1.842473447E-1	8.374879360E-1	1.023170948E1	1.026758063E1
7.622332970E-1	2.129612118E-1	8.446664214E-1	1.021256733E1	1.024965098E1
7.634291830E-1	2.392822653E-1	8.422735929E-1	1.019581699E1	1.023334574E1
7.646250160E-1	2.512463629E-1	8.422735929E-1	1.017906761E1	1.021694509E1
7.658209010E-1	2.656033039E-1	8.446664214E-1	1.015992451E1	1.019843480E1
7.670167870E-1	2.751746178E-1	8.542376757E-1	1.014078236E1	1.018041796E1
7.682126720E-1	2.799602449E-1	8.614161611E-1	1.012164021E1	1.016208719E1
7.694085050E-1	2.871387303E-1	8.733802438E-1	1.010488987E1	1.014662707E1
7.706043910E-1	2.943171859E-1	8.805587292E-1	1.009053326E1	1.013315685E1
7.718002760E-1	3.086741269E-1	8.901300430E-1	1.007139015E1	1.011536014E1
7.729961620E-1	3.110669553E-1	9.068797827E-1	1.005703354E1	1.010262922E1
7.741919950E-1	3.110669553E-1	9.188438654E-1	1.003310490E1	1.007989239E1
7.753878800E-1	3.278166950E-1	9.284151793E-1	1.001396275E1	1.006224967E1
7.765837140E-1	3.373879790E-1	9.379864931E-1	9.994820595E0	1.004440581E1
7.777795990E-1	3.373879790E-1	9.403793216E-1	9.982855797E0	1.003272415E1
7.789754850E-1	3.349951804E-1	9.403793216E-1	9.975677490E0	1.002550131E1
7.801713700E-1	3.302095234E-1	9.427721500E-1	9.958928108E0	1.000890137E1
7.813672550E-1	3.302095234E-1	9.451649189E-1	9.944570541E0	9.994841585E0
7.825630890E-1	3.326023519E-1	9.523434043E-1	9.937392235E0	9.988460678E0
7.837589740E-1	3.349951804E-1	9.667003751E-1	9.930213928E0	9.982779174E0
7.849548600E-1	3.230310678E-1	9.690931439E-1	9.918250084E0	9.970715888E0
7.861506930E-1	3.062812984E-1	9.643075466E-1	9.913464546E0	9.964962448E0
7.873465780E-1	3.038884699E-1	9.738788009E-1	9.908679008E0	9.961059573E0
7.885424640E-1	3.158525825E-1	9.906286001E-1	9.899106979E0	9.953563526E0
7.897382970E-1	3.134597540E-1	1.000199914E0	9.899106979E0	9.954445031E0
7.909341830E-1	3.014956415E-1	1.007378340E0	9.894321442E0	9.950040579E0
7.921300680E-1	3.110669553E-1	1.016949654E0	9.884750366E0	9.941792547E0
7.933259530E-1	3.182454109E-1	1.021735311E0	9.887143135E0	9.944889268E0
7.945217870E-1	3.158525825E-1	1.033699393E0	9.891928673E0	9.950806508E0
7.957176720E-1	3.230310678E-1	1.043270707E0	9.894321442E0	9.954414078E0
7.969135580E-1	3.230310678E-1	1.036092162E0	9.896714211E0	9.956042798E0
7.981093910E-1	3.206382394E-1	1.036092162E0	9.891928673E0	9.951208405E0
7.993052760E-1	3.254238665E-1	1.048056364E0	9.889535904E0	9.950238350E0
8.005011620E-1	3.206382394E-1	1.052842021E0	9.882357597E0	9.943453972E0
8.016969950E-1	3.158525825E-1	1.057627559E0	9.865608215E0	9.927162957E0
8.028928800E-1	3.134597540E-1	1.057627559E0	9.856036186E0	9.917574420E0
8.040887660E-1	3.062812984E-1	1.057627559E0	9.851250648E0	9.912594193E0
8.052846510E-1	3.134597540E-1	1.052842021E0	9.841679573E0	9.902797088E0
8.064804850E-1	3.158525825E-1	1.060020447E0	9.836894035E0	9.898883294E0
8.076763700E-1	3.038884699E-1	1.074377418E0	9.841679573E0	9.904811551E0
8.088722550E-1	2.919243574E-1	1.076770186E0	9.834501266E0	9.897578948E0
8.100681410E-1	2.823530734E-1	1.083948612E0	9.817750931E0	9.881442263E0
8.112639740E-1	2.703889608E-1	1.098305583E0	9.805787086E0	9.870807755E0
8.124598600E-1	2.656033039E-1	1.105484009E0	9.793823242E0	9.859595007E0
8.136557450E-1	2.560320199E-1	1.107876897E0	9.779465675E0	9.845348775E0
8.148515780E-1	2.344966233E-1	1.115055323E0	9.757930756E0	9.824232778E0
8.160474640E-1	2.297109663E-1	1.131805062E0	9.736394882E0	9.804648649E0
8.172433490E-1	2.368894368E-1	1.150947690E0	9.705288887E0	9.776166405E0
8.184392350E-1	2.368894368E-1	1.162911773E0	9.669396400E0	9.741956023E0
8.196350680E-1	2.416750938E-1	1.172483087E0	9.638289452E0	9.712350230E0
8.208309530E-1	2.416750938E-1	1.189232826E0	9.611968994E0	9.688272783E0
8.220268390E-1	2.321037948E-1	1.203589797E0	9.585647583E0	9.663702197E0
8.232226720E-1	2.321037948E-1	1.210768223E0	9.561718941E0	9.640866194E0
8.244185580E-1	2.440679073E-1	1.220339537E0	9.542576790E0	9.623386593E0
8.256144430E-1	2.488535494E-1	1.225125194E0	9.521040916E0	9.602764183E0
8.268103280E-1	2.416750938E-1	1.225125194E0	9.499505997E0	9.581229189E0
8.280061620E-1	2.368894368E-1	1.227517962E0	9.468399048E0	9.550575767E0
8.292020470E-1	2.297109663E-1	1.234696507E0	9.427721024E0	9.511002381E0
8.303979330E-1	2.273181528E-1	1.244267821E0	9.401400566E0	9.486106080E0
8.315937660E-1	2.201396823E-1	1.249053478E0	9.389435768E0	9.474708445E0
8.327896510E-1	1.986042857E-1	1.244267821E0	9.370293617E0	9.454631064E0
8.339855370E-1	1.794617027E-1	1.241874933E0	9.348757744E0	9.432588786E0
8.351814220E-1	1.722832322E-1	1.251446247E0	9.336793900E0	9.421863910E0
8.363772550E-1	1.579262912E-1	1.249053478E0	9.329615593E0	9.414180921E0
8.375731410E-1	1.339980662E-1	1.244267821E0	9.322437286E0	9.406061602E0
8.387690260E-1	1.028913707E-1	1.241874933E0	9.320044518E0	9.402981963E0
8.399648600E-1	6.699903309E-2	1.251446247E0	9.317651749E0	9.401555227E0
8.411607450E-1	4.546362907E-2	1.253839016E0	9.315258980E0	9.399373866E0
8.423566300E-1	2.392822690E-2	1.246660590E0	9.315258980E0	9.398339484E0
8.435524640E-1	9.571290575E-3	1.237089276E0	9.317651749E0	9.399421025E0
8.447483490E-1	-4.785645287E-3	1.222732425E0	9.322437286E0	9.402283470E0
8.459442350E-1	-2.153540403E-2	1.217946768E0	9.332008362E0	9.411176237E0
8.471401200E-1	-3.589234129E-2	1.215553880E0	9.346364975E0	9.425147094E0
8.483359530E-1	-5.742774159E-2	1.208375454E0	9.363115311E0	9.440942617E0
8.495318390E-1	-7.657032460E-2	1.201196909E0	9.372686386E0	9.449655397E0
8.507277240E-1	-9.571290761E-2	1.198804140E0	9.382257462E0	9.459019368E0
8.519236100E-1	-1.196411327E-1	1.194018483E0	9.399007797E0	9.475301669E0
8.531194430E-1	-1.292124242E-1	1.186840057E0	9.422935486E0	9.498262912E0
8.543153280E-1	-1.339980662E-1	1.174875975E0	9.458827972E0	9.532455909E0
8.555112140E-1	-1.483550072E-1	1.165304661E0	9.489934921E0	9.562364194E0
8.567070470E-1	-1.746760458E-1	1.162911773E0	9.513862610E0	9.586263989E0
8.579029330E-1	-1.938186288E-1	1.160519004E0	9.537791252E0	9.610090113E0
8.590988180E-1	-1.962114573E-1	1.155733347E0	9.571290970E0	9.642812315E0
8.602946510E-1	-2.081755698E-1	1.134197950E0	9.602396965E0	9.671389225E0
8.614905370E-1	-2.129612118E-1	1.117448211E0	9.628718376E0	9.695682573E0
8.626864220E-1	-2.177468538E-1	1.112662554E0	9.645467758E0	9.711873142E0
8.638823080E-1	-2.273181528E-1	1.112662554E0	9.664610863E0	9.731104492E0
8.650781410E-1	-2.273181528E-1	1.103091240E0	9.690931320E0	9.756158756E0
8.662740260E-1	-2.321037948E-1	1.081555843E0	9.717252731E0	9.780012058E0
8.674699120E-1	-2.368894368E-1	1.076770186E0	9.743574142E0	9.805752786E0
8.686657450E-1	-2.536391914E-1	1.081555843E0	9.760323524E0	9.823340124E0
8.698616300E-1	-2.656033039E-1	1.074377418E0	9.769894600E0	9.832378778E0
8.710575160E-1	-2.679961324E-1	1.062413216E0	9.779465675E0	9.840655093E0
8.722534010E-1	-2.751746178E-1	1.050449133E0	9.801001549E0	9.860973370E0
8.734492350E-1	-2.823530734E-1	1.040877819E0	9.827322960E0	9.886325225E0
8.746451200E-1	-2.775674164E-1	1.040877819E0	9.841679573E0	9.900460955E0
8.758410050E-1	-2.703889608E-1	1.043270707E0	9.841679573E0	9.900514167E0
8.770368390E-1	-2.703889608E-1	1.036092162E0	9.844072342E0	9.902139033E0
8.782327240E-1	-2.751746178E-1	1.021735311E0	9.851250648E0	9.907916201E0
8.794286100E-1	-2.823530734E-1	1.021735311E0	9.860821724E0	9.917634364E0
8.806244430E-1	-2.919243574E-1	1.036092162E0	9.868000984E0	9.926537675E0
8.818203280E-1	-2.991028428E-1	1.040877819E0	9.870393753E0	9.929630506E0
8.830162140E-1	-3.182454109E-1	1.043270707E0	9.882357597E0	9.942368208E0
8.842120990E-1	-3.278166950E-1	1.043270707E0	9.891928673E0	9.952192242E0
8.854079330E-1	-3.206382394E-1	1.048056364E0	9.891928673E0	9.952461198E0
8.866038180E-1	-3.158525825E-1	1.050449133E0	9.882357597E0	9.943047718E0
8.877997030E-1	-3.182454109E-1	1.043270707E0	9.875179291E0	9.935233260E0
8.889955890E-1	-3.230310678E-1	1.038485050E0	9.865608215E0	9.925372826E0
8.901914220E-1	-3.206382394E-1	1.043270707E0	9.853643417E0	9.913904944E0
8.913873080E-1	-3.062812984E-1	1.050449133E0	9.851250648E0	9.911830858E0
8.925831930E-1	-2.871387303E-1	1.050449133E0	9.856036186E0	9.916014388E0
8.937790260E-1	-2.679961324E-1	1.057627559E0	9.851250648E0	9.911485122E0
8.949749120E-1	-2.584248483E-1	1.062413216E0	9.841679573E0	9.902230156E0
8.961707970E-1	-2.464607358E-1	1.060020447E0	9.836894035E0	9.896912170E0
8.973666830E-1	-2.392822653E-1	1.052842021E0	9.820143700E0	9.879319542E0
8.985625160E-1	-2.368894368E-1	1.050449133E0	9.805787086E0	9.864736204E0
8.997584010E-1	-2.201396823E-1	1.038485050E0	9.796216011E0	9.853565893E0
9.009542870E-1	-1.938186288E-1	1.019342422E0	9.781859398E0	9.836737158E0
9.021501200E-1	-1.746760458E-1	1.009771109E0	9.762716293E0	9.816352624E0
9.033460050E-1	-1.627119333E-1	1.016949654E0	9.748359680E0	9.802610786E0
9.045418910E-1	-1.459621787E-1	1.038485050E0	9.738788605E0	9.795088547E0
9.057377240E-1	-1.244267747E-1	1.048056364E0	9.726823807E0	9.783915654E0
9.069336100E-1	-1.100698411E-1	1.045663476E0	9.707681656E0	9.764456493E0
9.081294950E-1	-9.092725813E-2	1.057627559E0	9.693324089E0	9.751275594E0
9.093253800E-1	-7.417750359E-2	1.067198873E0	9.681360245E0	9.740285002E0
9.105212140E-1	-6.460621208E-2	1.062413216E0	9.662218094E0	9.720666350E0
9.117170990E-1	-5.982056633E-2	1.052842021E0	9.652647018E0	9.710079777E0
9.129129850E-1	-4.307080805E-2	1.038485050E0	9.647860527E0	9.703685848E0
9.141088700E-1	-3.110669367E-2	1.043270707E0	9.643074989E0	9.699395684E0
9.153047030E-1	-2.153540403E-2	1.045663476E0	9.635896683E0	9.692490947E0
9.165005890E-1	-9.571290575E-3	1.040877819E0	9.626325607E0	9.682440960E0
9.176964740E-1	4.785645287E-3	1.040877819E0	9.619147301E0	9.675300736E0
9.188923080E-1	1.435693540E-2	1.028913736E0	9.609575272E0	9.664512740E0
9.200881930E-1	2.392822690E-2	1.007378340E0	9.597611427E0	9.650364179E0
9.212840780E-1	2.871387079E-2	1.000199914E0	9.592825890E0	9.644870808E0
9.224799640E-1	3.349951655E-2	1.012163997E0	9.588040352E0	9.641375211E0
9.236757970E-1	3.589234129E-2	1.019342422E0	9.568898201E0	9.623105529E0
9.248716830E-1	3.589234129E-2	1.024128079E0	9.559326172E0	9.614096080E0
9.260675680E-1	4.067798331E-2	1.009771109E0	9.566504478E0	9.619734941E0
9.272634010E-1	5.742774159E-2	9.882357717E-1	9.566504478E0	9.617583679E0
9.284592870E-1	7.178468257E-2	9.930213690E-1	9.561718941E0	9.613413212E0
9.296551720E-1	7.657032460E-2	9.954141974E-1	9.561718941E0	9.613697600E0
9.308510580E-1	6.939185411E-2	9.858429432E-1	9.566504478E0	9.617416986E0
9.320468910E-1	5.742774159E-2	9.786644578E-1	9.578469276E0	9.628507452E0
9.332427760E-1	5.982056633E-2	9.738788009E-1	9.602396965E0	9.651841580E0
9.344386620E-1	7.417750359E-2	9.690931439E-1	9.614361763E0	9.663363593E0
9.356344950E-1	7.896314561E-2	9.643075466E-1	9.623932838E0	9.672445787E0
9.368303800E-1	7.657032460E-2	9.523434043E-1	9.647860527E0	9.695052023E0
9.380262660E-1	8.614161611E-2	9.403793216E-1	9.667003632E0	9.713016671E0
9.392220990E-1	1.076770201E-1	9.236295223E-1	9.678967476E0	9.723533166E0
9.404179850E-1	1.100698411E-1	9.140582681E-1	9.698110580E0	9.741712720E0
9.416138700E-1	8.853443712E-2	9.164510965E-1	9.717252731E0	9.760774642E0
9.428097550E-1	6.460621208E-2	9.140582681E-1	9.724431038E0	9.767509175E0
9.440055890E-1	5.982056633E-2	9.068797827E-1	9.741181374E0	9.783487312E0
9.452014740E-1	6.221338734E-2	9.020941257E-1	9.769894600E0	9.811650463E0
9.463973600E-1	5.024927482E-2	9.140582681E-1	9.803394318E0	9.846043249E0
9.475931930E-1	3.349951655E-2	9.332008362E-1	9.817750931E0	9.862059590E0
9.487890780E-1	2.632104978E-2	9.355936646E-1	9.832108498E0	9.876557387E0
9.499849640E-1	1.674975827E-2	9.284151793E-1	9.848857880E0	9.892534399E0
9.511808490E-1	-2.392822644E-3	9.092726111E-1	9.863214493E0	9.905038240E0
9.523766830E-1	-1.196411345E-2	8.949156404E-1	9.877572060E0	9.918036446E0
9.535725680E-1	-4.785645287E-3	8.853443861E-1	9.889535904E0	9.929087470E0
9.547684530E-1	-4.785645287E-3	8.757730722E-1	9.903892517E0	9.942539332E0
9.559642870E-1	-1.196411345E-2	8.638089895E-1	9.923035622E0	9.960569515E0
9.571601720E-1	-2.392822644E-3	8.566305041E-1	9.942177773E0	9.979014000E0
9.583560580E-1	7.178467698E-3	8.566305041E-1	9.968499184E0	1.000524079E1
9.595519430E-1	7.178467698E-3	8.590233326E-1	9.997213364E0	1.003405440E1
9.607477760E-1	-4.785645287E-3	8.566305041E-1	1.002592659E1	1.006245709E1
9.619436620E-1	-2.153540403E-2	8.446664214E-1	1.004506969E1	1.008054316E1
9.631395470E-1	-3.828516230E-2	8.327022791E-1	1.006899738E1	1.010344333E1
9.643353800E-1	-4.307080805E-2	8.350951076E-1	1.009771156E1	1.013227604E1
9.655312660E-1	-3.828516230E-2	8.446664214E-1	1.011924744E1	1.015451111E1
9.667271510E-1	-3.349951655E-2	8.470591903E-1	1.012642574E1	1.016184677E1
9.679229850E-1	-2.392822690E-2	8.446664214E-1	1.013121128E1	1.016638952E1
9.691188700E-1	-1.435693540E-2	8.398807645E-1	1.014317513E1	1.017789799E1
9.703147550E-1	-7.178467698E-3	8.327022791E-1	1.015035343E1	1.018445479E1
9.715106410E-1	-7.178467698E-3	8.398807645E-1	1.015753174E1	1.019219811E1
9.727064740E-1	-7.178467698E-3	8.470591903E-1	1.015992451E1	1.019517664E1
9.739023600E-1	4.785645287E-3	8.494520187E-1	1.016231823E1	1.019775973E1
9.750982450E-1	1.674975827E-2	8.518448472E-1	1.016949654E1	1.020512518E1
9.762941300E-1	3.349951655E-2	8.518448472E-1	1.016710377E1	1.020278202E1
9.774899640E-1	5.264209956E-2	8.566305041E-1	1.015513897E1	1.019134115E1
9.786858490E-1	5.503492057E-2	8.733802438E-1	1.013838959E1	1.017608792E1
9.798817350E-1	5.503492057E-2	8.781659007E-1	1.013360405E1	1.017173216E1
9.810775680E-1	4.785645381E-2	8.685946465E-1	1.013360405E1	1.017087400E1
9.822734530E-1	5.742774159E-2	8.805587292E-1	1.012164021E1	1.016003357E1
9.834693390E-1	6.939185411E-2	8.925228715E-1	1.010488987E1	1.014446704E1
9.846651720E-1	6.939185411E-2	8.949156404E-1	1.009292603E1	1.013276098E1
9.858610580E-1	7.417750359E-2	8.925228715E-1	1.007856941E1	1.011828349E1
9.870569430E-1	7.896314561E-2	8.853443861E-1	1.006421185E1	1.010338705E1
9.882528280E-1	8.374879509E-2	8.829515576E-1	1.004267693E1	1.008176458E1
9.894486620E-1	8.853443712E-2	8.901300430E-1	1.002831936E1	1.006813583E1
9.906445470E-1	9.332008660E-2	8.973084688E-1	1.001396275E1	1.005451744E1
9.918404330E-1	9.571290761E-2	8.997012973E-1	1.000199890E1	1.004283851E1
9.930362660E-1	1.004985496E-1	9.044869542E-1	9.985248566E0	1.002663381E1
9.942321510E-1	1.052841991E-1	9.164510965E-1	9.963713646E0	1.000632585E1
9.954280370E-1	1.052841991E-1	9.308080077E-1	9.956535339E0	1.000050420E1
9.966239220E-1	1.076770201E-1	9.427721500E-1	9.956535339E0	1.000165035E1
9.978197550E-1	1.124626622E-1	9.427721500E-1	9.944570541E0	9.989792312E0
9.990156410E-1	1.100698411E-1	9.308080077E-1	9.932606697E0	9.976732667E0
1.000211526E0	1.028913707E-1	9.212366939E-1	9.930213928E0	9.973385200E0
1.001407360E0	9.571290761E-2	9.188438654E-1	9.923035622E0	9.965945563E0
1.002603245E0	9.810572863E-2	9.164510965E-1	9.915857315E0	9.958600988E0
1.003799130E0	1.052841991E-1	9.116654396E-1	9.913464546E0	9.955852447E0
1.004994964E0	1.124626622E-1	9.044869542E-1	9.911071777E0	9.952893463E0
1.006190849E0	1.076770201E-1	8.997012973E-1	9.911071777E0	9.952406771E0
1.007386735E0	1.028913707E-1	8.973084688E-1	9.915857315E0	9.956905916E0
1.008582620E0	1.172483116E-1	9.020941257E-1	9.915857315E0	9.957497038E0
1.009778453E0	1.220339537E-1	8.973084688E-1	9.906285286E0	9.947589806E0
1.010974339E0	1.220339537E-1	8.877372146E-1	9.889535904E0	9.930049851E0
1.012170224E0	1.339980662E-1	8.853443861E-1	9.889535904E0	9.929990461E0
1.013366058E0	1.339980662E-1	8.805587292E-1	9.901499748E0	9.941480595E0
1.014561943E0	1.316052526E-1	8.614161611E-1	9.901499748E0	9.939771376E0
1.015757828E0	1.363908947E-1	8.614161611E-1	9.896714211E0	9.935068819E0
1.016953714E0	1.435693651E-1	8.757730722E-1	9.906285286E0	9.945957913E0
1.018149547E0	1.531406492E-1	8.733802438E-1	9.911071777E0	9.950657711E0
1.019345433E0	1.579262912E-1	8.662018180E-1	9.906285286E0	9.945337323E0
1.020541318E0	1.531406492E-1	8.733802438E-1	9.915857315E0	9.955424220E0
1.021737151E0	1.531406492E-1	8.877372146E-1	9.923035622E0	9.963842902E0
1.022933037E0	1.483550072E-1	8.949156404E-1	9.932606697E0	9.973944005E0
1.024128922E0	1.435693651E-1	9.092726111E-1	9.930213928E0	9.972789856E0
1.025324808E0	1.483550072E-1	9.140582681E-1	9.925428391E0	9.968532513E0
1.026520641E0	1.483550072E-1	9.116654396E-1	9.923035622E0	9.965930916E0
1.027716526E0	1.555334777E-1	9.140582681E-1	9.923035622E0	9.966259535E0
1.028912412E0	1.507478207E-1	9.092726111E-1	9.934999466E0	9.977660847E0
1.030108245E0	1.507478207E-1	8.997012973E-1	9.942177773E0	9.983941416E0
1.031304130E0	1.555334777E-1	8.997012973E-1	9.954142570E0	9.995929542E0
1.032500016E0	1.459621787E-1	9.116654396E-1	9.966106415E0	1.000878194E1
1.033695849E0	1.387837082E-1	9.164510965E-1	9.973284721E0	1.001626436E1
1.034891735E0	1.387837082E-1	9.116654396E-1	9.987641335E0	1.003012334E1
1.036087620E0	1.459621787E-1	9.140582681E-1	9.994820595E0	1.003759165E1
1.037283505E0	1.507478207E-1	9.164510965E-1	9.990034103E0	1.003311462E1
1.038479339E0	1.507478207E-1	9.188438654E-1	9.982855797E0	1.002618615E1
1.039675224E0	1.483550072E-1	9.355936646E-1	9.985248566E0	1.003008144E1
1.040871110E0	1.579262912E-1	9.451649189E-1	9.999606133E0	1.004541688E1
1.042066943E0	1.746760458E-1	9.499505758E-1	9.999606133E0	1.004614556E1
1.043262828E0	1.818545163E-1	9.643075466E-1	9.997213364E0	1.004525934E1
1.044458714E0	1.986042857E-1	9.690931439E-1	9.992427826E0	1.004127477E1
1.045654599E0	2.129612118E-1	9.786644578E-1	9.985248566E0	1.003535378E1
1.046850433E0	2.129612118E-1	9.906286001E-1	9.982855797E0	1.003414707E1
1.048046318E0	2.009970993E-1	9.954141974E-1	9.992427826E0	1.004389681E1
1.049242203E0	1.986042857E-1	1.007378340E0	9.999606133E0	1.005218273E1
1.050438037E0	2.177468538E-1	1.026520967E0	9.997213364E0	1.005213579E1
1.051633922E0	2.321037948E-1	1.038485050E0	1.000199890E1	1.005844448E1
1.052829808E0	2.201396823E-1	1.043270707E0	1.001396275E1	1.007056727E1
1.054025641E0	2.105683982E-1	1.052842021E0	1.001635551E1	1.007373780E1
1.055221526E0	2.129612118E-1	1.057627559E0	1.001156998E1	1.006953137E1
1.056417412E0	1.986042857E-1	1.052842021E0	1.001156998E1	1.006873643E1
1.057613297E0	1.914258152E-1	1.055234790E0	1.000917721E1	1.006646873E1
1.058809130E0	1.938186288E-1	1.060020447E0	9.992427826E0	1.005036432E1
1.060005016E0	1.866401732E-1	1.064806104E0	9.973284721E0	1.003170248E1
1.061200901E0	1.770688742E-1	1.079162955E0	9.968499184E0	1.002830604E1
1.062396787E0	1.794617027E-1	1.086341500E0	9.961320877E0	1.002198872E1
1.063592620E0	1.770688742E-1	1.086341500E0	9.944570541E0	1.000529732E1
1.064788505E0	1.674975902E-1	1.086341500E0	9.925428391E0	9.986106450E0
1.065984391E0	1.459621787E-1	1.086341500E0	9.899106979E0	9.959606508E0
1.067180224E0	1.244267747E-1	1.091127157E0	9.870393753E0	9.931299680E0
1.068376110E0	1.124626622E-1	1.095912814E0	9.841679573E0	9.903147458E0
1.069571995E0	1.076770201E-1	1.107876897E0	9.815358162E0	9.878271175E0
1.070767828E0	1.004985496E-1	1.117448211E0	9.803394318E0	9.867387223E0
1.071963714E0	8.614161611E-2	1.124626637E0	9.791430473E0	9.856181622E0
1.073159599E0	8.853443712E-2	1.136590719E0	9.781859398E0	9.848068343E0
1.074355433E0	8.853443712E-2	1.146162033E0	9.774680138E0	9.842047427E0
1.075551318E0	7.178468257E-2	1.148554921E0	9.765109062E0	9.832684600E0
1.076747203E0	6.699903309E-2	1.148554921E0	9.753145218E0	9.820769263E0
1.077943089E0	7.417750359E-2	1.148554921E0	9.738788605E0	9.806563322E0
1.079138922E0	6.939185411E-2	1.162911773E0	9.722038269E0	9.791588590E0
1.080334808E0	5.742774159E-2	1.170090318E0	9.705288887E0	9.775737398E0
1.081530693E0	5.982056633E-2	1.172483087E0	9.683753014E0	9.754658760E0
1.082726526E0	6.460621208E-2	1.182054400E0	9.655039787E0	9.727343926E0
1.083922412E0	6.460621208E-2	1.191625714E0	9.638289452E0	9.711888043E0
1.085118297E0	6.221338734E-2	1.189232826E0	9.628718376E0	9.702080333E0
1.086314183E0	4.307080805E-2	1.184447169E0	9.611968994E0	9.684767325E0
1.087510016E0	4.067798331E-2	1.179661512E0	9.590433121E0	9.662797909E0
1.088705901E0	5.264209956E-2	1.184447169E0	9.588040352E0	9.661066405E0
1.089901787E0	4.785645381E-2	1.184447169E0	9.585647583E0	9.658666829E0
1.091097620E0	4.067798331E-2	1.182054400E0	9.561718941E0	9.634592695E0
1.092293505E0	3.110669367E-2	1.189232826E0	9.547362328E0	9.621193780E0
1.093489391E0	2.871387079E-2	1.196411371E0	9.547362328E0	9.622076287E0
1.094685276E0	2.632104978E-2	1.208375454E0	9.554540634E0	9.630685893E0
1.095881110E0	1.674975827E-2	1.220339537E0	9.571290970E0	9.648788523E0
1.097076995E0	1.196411345E-2	1.222732425E0	9.592825890E0	9.670446022E0
1.098272880E0	0.000000000E0	1.222732425E0	9.607182503E0	9.684680182E0
1.099468714E0	-9.571290575E-3	1.215553880E0	9.614361763E0	9.690903722E0
1.100664599E0	-7.178467698E-3	1.208375454E0	9.628718376E0	9.704248571E0
1.101860485E0	-4.785645287E-3	1.208375454E0	9.647860527E0	9.723240555E0
1.103056370E0	-4.785645287E-3	1.205982566E0	9.664610863E0	9.739564671E0
1.104252203E0	-7.178467698E-3	1.201196909E0	9.683753014E0	9.757970997E0
1.105448089E0	0.000000000E0	1.191625714E0	9.707681656E0	9.780544718E0
1.106643974E0	9.571290575E-3	1.177268744E0	9.731609344E0	9.802564651E0
1.107839808E0	9.571290575E-3	1.172483087E0	9.750752449E0	9.820996972E0
1.109035693E0	1.435693540E-2	1.170090318E0	9.767501831E0	9.837347686E0
1.110231578E0	1.674975827E-2	1.160519004E0	9.784252167E0	9.852851129E0
1.111427412E0	9.571290575E-3	1.158126116E0	9.803394318E0	9.871569675E0
1.112623297E0	2.392822644E-3	1.150947690E0	9.812965393E0	9.880231582E0
1.113819183E0	-7.178467698E-3	1.148554921E0	9.810572624E0	9.877578911E0
1.115015068E0	-7.178467698E-3	1.150947690E0	9.815358162E0	9.882610382E0
1.116210901E0	-4.785645287E-3	1.158126116E0	9.815358162E0	9.883447518E0
1.117406787E0	-7.178467698E-3	1.155733347E0	9.808179855E0	9.876039853E0
1.118602672E0	-2.392822644E-3	1.134197950E0	9.812965393E0	9.878294414E0
1.119798505E0	7.178467698E-3	1.117448211E0	9.827322960E0	9.890653092E0
1.120994391E0	9.571290575E-3	1.103091240E0	9.832108498E0	9.893799038E0
1.122190276E0	1.914258115E-2	1.103091240E0	9.824930191E0	9.886679421E0
1.123386110E0	2.871387079E-2	1.100698471E0	9.829715729E0	9.891191683E0
1.124581995E0	2.392822690E-2	1.086341500E0	9.834501266E0	9.894348163E0
1.125777880E0	2.392822690E-2	1.071984529E0	9.832108498E0	9.890403475E0
1.126973766E0	3.589234129E-2	1.062413216E0	9.824930191E0	9.882270152E0
1.128169599E0	5.264209956E-2	1.067198873E0	9.803394318E0	9.861451454E0
1.129365485E0	5.742774159E-2	1.069591761E0	9.791430473E0	9.849844425E0
1.130561370E0	5.024927482E-2	1.064806104E0	9.791430473E0	9.849286662E0
1.131757203E0	4.546362907E-2	1.062413216E0	9.786644936E0	9.844247451E0
1.132953089E0	3.589234129E-2	1.071984529E0	9.796216011E0	9.854759623E0
1.134148974E0	3.349951655E-2	1.071984529E0	9.812965393E0	9.871401261E0
1.135344808E0	3.349951655E-2	1.067198873E0	9.812965393E0	9.870882709E0
1.136540693E0	3.110669367E-2	1.067198873E0	9.817750931E0	9.875632354E0
1.137736578E0	2.871387079E-2	1.067198873E0	9.834501266E0	9.892277447E0
1.138932464E0	2.632104978E-2	1.071984529E0	9.841679573E0	9.899924265E0
1.140128297E0	2.153540403E-2	1.071984529E0	9.841679573E0	9.899912698E0
1.141324183E0	2.392822690E-2	1.052842021E0	9.834501266E0	9.890726164E0
1.142520068E0	3.349951655E-2	1.040877819E0	9.832108498E0	9.887108089E0
1.143715953E0	2.632104978E-2	1.031306505E0	9.832108498E0	9.886083320E0
1.144911787E0	1.435693540E-2	1.026520967E0	9.829715729E0	9.883180800E0
1.146107672E0	0.000000000E0	1.019342422E0	9.817750931E0	9.870526446E0
1.147303558E0	-4.785645287E-3	1.004985452E0	9.805787086E0	9.857153699E0
1.148499391E0	0.000000000E0	9.882357717E-1	9.805787086E0	9.855458910E0
1.149695276E0	4.785645287E-3	9.738788009E-1	9.810572624E0	9.858792930E0
1.150891162E0	7.178467698E-3	9.571290612E-1	9.812965393E0	9.859535353E0
1.152086995E0	4.785645287E-3	9.427721500E-1	9.812965393E0	9.858150538E0
1.153282880E0	2.392822644E-3	9.379864931E-1	9.815358162E0	9.860075062E0
1.154478766E0	9.571290575E-3	9.260223508E-1	9.820143700E0	9.863712855E0
1.155674651E0	1.914258115E-2	9.308080077E-1	9.829715729E0	9.873706563E0
1.156870485E0	3.349951655E-2	9.379864931E-1	9.834501266E0	9.879188025E0
1.158066370E0	3.589234129E-2	9.355936646E-1	9.829715729E0	9.874205541E0
1.159262255E0	2.392822690E-2	9.403793216E-1	9.827322960E0	9.872242014E0
1.160458089E0	9.571290575E-3	9.355936646E-1	9.832108498E0	9.876526952E0
1.161653974E0	0.000000000E0	9.308080077E-1	9.839286804E0	9.883216499E0
1.162849860E0	-4.785645287E-3	9.212366939E-1	9.856036186E0	9.898997386E0
1.164045693E0	2.392822644E-3	8.997012973E-1	9.877572060E0	9.918462479E0
1.165241578E0	1.435693540E-2	8.925228715E-1	9.889535904E0	9.929739352E0
1.166437464E0	7.178467698E-3	8.925228715E-1	9.903892517E0	9.944030149E0
1.167633349E0	2.392822644E-3	8.949156404E-1	9.930213928E0	9.970457782E0
1.168829183E0	-2.392822644E-3	8.997012973E-1	9.949356079E0	9.989952680E0
1.170025068E0	-4.785645287E-3	8.997012973E-1	9.963713646E0	1.000425284E1
1.171220953E0	-4.785645287E-3	8.901300430E-1	9.980463028E0	1.002007967E1
1.172416787E0	2.392822644E-3	8.781659007E-1	9.987641335E0	1.002617377E1
1.173612672E0	1.435693540E-2	8.638089895E-1	9.994820595E0	1.003208906E1
1.174808558E0	1.914258115E-2	8.542376757E-1	1.000439167E1	1.004081377E1
1.176004391E0	2.392822644E-3	8.518448472E-1	1.000917721E1	1.004536081E1
1.177200276E0	-9.571290575E-3	8.494520187E-1	1.001635551E1	1.005231506E1
1.178396162E0	-9.571290575E-3	8.518448472E-1	1.002831936E1	1.006443841E1
1.179592047E0	-9.571290575E-3	8.470591903E-1	1.004746246E1	1.008310978E1
1.180787880E0	-4.785645287E-3	8.398807645E-1	1.005942631E1	1.009442818E1
1.181983766E0	2.392822644E-3	8.398807645E-1	1.006181908E1	1.009681180E1
1.183179651E0	7.178467698E-3	8.398807645E-1	1.005224800E1	1.008727620E1
1.184375485E0	1.674975827E-2	8.398807645E-1	1.004985523E1	1.008490310E1
1.185571370E0	1.674975827E-2	8.446664214E-1	1.006421185E1	1.009960900E1
1.186767255E0	1.914258115E-2	8.494520187E-1	1.007856941E1	1.011432136E1
1.187963141E0	2.871387079E-2	8.542376757E-1	1.007378292E1	1.010997769E1
1.189158974E0	3.828516230E-2	8.542376757E-1	1.005942631E1	1.009570430E1
1.190354860E0	4.785645381E-2	8.470591903E-1	1.004506969E1	1.008083452E1
1.191550745E0	5.264209956E-2	8.422735929E-1	1.003310490E1	1.006853464E1
1.192746578E0	6.460621208E-2	8.374879360E-1	1.002353382E1	1.005866742E1
1.193942464E0	7.178468257E-2	8.422735929E-1	1.002114105E1	1.005673137E1
1.195138349E0	6.939185411E-2	8.542376757E-1	1.002114105E1	1.005772366E1
1.196334235E0	5.742774159E-2	8.590233326E-1	1.002114105E1	1.005805583E1
1.197530068E0	5.264209956E-2	8.638089895E-1	1.000199890E1	1.003936847E1
1.198725953E0	5.982056633E-2	8.662018180E-1	9.978070259E0	1.001577607E1
1.199921839E0	6.221338734E-2	8.662018180E-1	9.966106415E0	1.000387191E1
1.201117672E0	4.546362907E-2	8.709874153E-1	9.949356079E0	9.987510821E0
1.202313558E0	3.828516230E-2	8.829515576E-1	9.923035622E0	9.962314247E0
1.203509443E0	4.307080805E-2	8.877372146E-1	9.884750366E0	9.924627059E0
1.204705276E0	5.264209956E-2	8.829515576E-1	9.839286804E0	9.878964493E0
1.205901162E0	6.460621208E-2	8.901300430E-1	9.801001549E0	9.841551545E0
1.207097047E0	6.699903309E-2	9.044869542E-1	9.777072906E0	9.819049859E0
1.208292933E0	7.178468257E-2	9.164510965E-1	9.769894600E0	9.813046222E0
1.209488766E0	8.135596663E-2	9.260223508E-1	9.760323524E0	9.804491394E0
1.210684651E0	9.332008660E-2	9.284151793E-1	9.750752449E0	9.795296662E0
1.211880537E0	9.332008660E-2	9.260223508E-1	9.750752449E0	9.795070156E0
1.213076370E0	9.092725813E-2	9.260223508E-1	9.741181374E0	9.785519900E0
1.214272255E0	9.332008660E-2	9.355936646E-1	9.722038269E0	9.767398438E0
1.215468141E0	1.028913707E-1	9.451649189E-1	9.707681656E0	9.754127664E0
1.216663974E0	1.100698411E-1	9.523434043E-1	9.695717812E0	9.742998369E0
1.217859860E0	1.076770201E-1	9.619147182E-1	9.683753014E0	9.732006304E0
1.219055745E0	1.124626622E-1	9.810572863E-1	9.669396400E0	9.719688678E0
1.220251630E0	1.220339537E-1	9.906286001E-1	9.657432556E0	9.708874337E0
1.221447464E0	1.363908947E-1	9.930213690E-1	9.635896683E0	9.687889285E0
1.222643349E0	1.411765367E-1	1.004985452E0	9.621540070E0	9.674913947E0
1.223839235E0	1.483550072E-1	1.012163997E0	9.611968994E0	9.666252278E0
1.225035068E0	1.698904037E-1	1.014556766E0	9.592825890E0	9.647823419E0
1.226230953E0	1.818545163E-1	1.019342422E0	9.573683739E0	9.629514545E0
1.227426839E0	1.866401732E-1	1.033699393E0	9.552147865E0	9.609729332E0
1.228622724E0	1.914258152E-1	1.055234790E0	9.530612946E0	9.590763652E0
1.229818558E0	2.009970993E-1	1.074377418E0	9.506684303E0	9.569312050E0
1.231014443E0	2.129612118E-1	1.079162955E0	9.485149384E0	9.548717400E0
1.232210328E0	2.201396823E-1	1.074377418E0	9.468399048E0	9.531701257E0
1.233406162E0	2.201396823E-1	1.079162955E0	9.456435204E0	9.520358235E0
1.234602047E0	2.153540403E-1	1.086341500E0	9.454042435E0	9.518688648E0
1.235797933E0	2.081755698E-1	1.091127157E0	9.454042435E0	9.519076315E0
1.236993766E0	2.081755698E-1	1.095912814E0	9.456435204E0	9.522002348E0
1.238189651E0	2.057827413E-1	1.093519926E0	9.454042435E0	9.519298857E0
1.239385537E0	2.081755698E-1	1.091127157E0	9.442078590E0	9.507194310E0
1.240581422E0	2.057827413E-1	1.100698471E0	9.437292099E0	9.503492296E0
1.241777255E0	2.057827413E-1	1.115055323E0	9.437292099E0	9.505165810E0
1.242973141E0	1.986042857E-1	1.115055323E0	9.430113792E0	9.497885984E0
1.244169026E0	1.818545163E-1	1.105484009E0	9.427721024E0	9.494055491E0
1.245364860E0	1.746760458E-1	1.100698471E0	9.439684868E0	9.505245881E0
1.246560745E0	1.579262912E-1	1.091127157E0	9.454042435E0	9.518109977E0
1.247756630E0	1.339980662E-1	1.086341500E0	9.451649666E0	9.514818692E0
1.248952464E0	1.124626622E-1	1.088734269E0	9.456435204E0	9.519567055E0
1.250148349E0	9.092725813E-2	1.086341500E0	9.475577354E0	9.538080091E0
1.251344235E0	8.374879509E-2	1.067198873E0	9.504291534E0	9.564386278E0
1.252540068E0	7.896314561E-2	1.055234790E0	9.525827408E0	9.584421915E0
1.253735953E0	6.699903309E-2	1.048056364E0	9.554540634E0	9.612083944E0
1.254931839E0	5.264209956E-2	1.031306505E0	9.583254814E0	9.638731095E0
1.256127724E0	3.589234129E-2	1.016949654E0	9.609575272E0	9.663302322E0
1.257323558E0	2.153540403E-2	1.004985452E0	9.633503914E0	9.685806997E0
1.258519443E0	4.785645287E-3	9.858429432E-1	9.659825325E0	9.710001778E0
1.259715328E0	-1.914258115E-2	9.810572863E-1	9.693324089E0	9.742862605E0
1.260911214E0	-3.589234129E-2	9.810572863E-1	9.738788605E0	9.788144111E0
1.262107047E0	-5.024927482E-2	9.714859724E-1	9.767501831E0	9.815824061E0
1.263302933E0	-5.503492057E-2	9.523434043E-1	9.781859398E0	9.828263330E0
1.264498818E0	-6.699903309E-2	9.308080077E-1	9.801001549E0	9.845330049E0
1.265694651E0	-8.853443712E-2	9.260223508E-1	9.829715729E0	9.873634946E0
1.266890537E0	-9.810572863E-2	9.284151793E-1	9.856036186E0	9.900152968E0
1.268086422E0	-1.076770201E-1	9.140582681E-1	9.872786522E0	9.915594312E0
1.269282255E0	-1.148554832E-1	8.901300430E-1	9.899106979E0	9.939710371E0
1.270478141E0	-1.196411327E-1	8.757730722E-1	9.915857315E0	9.955175476E0
1.271674026E0	-1.363908947E-1	8.733802438E-1	9.930213928E0	9.969480638E0
1.272869860E0	-1.579262912E-1	8.733802438E-1	9.942177773E0	9.981714914E0
1.274065745E0	-1.746760458E-1	8.662018180E-1	9.942177773E0	9.981368452E0
1.275261630E0	-1.651047617E-1	8.638089895E-1	9.946963310E0	9.985765101E0
1.276457516E0	-1.483550072E-1	8.590233326E-1	9.963713646E0	1.000177584E1
1.277653349E0	-1.387837082E-1	8.518448472E-1	9.978070259E0	1.001532759E1
1.278849235E0	-1.387837082E-1	8.494520187E-1	9.985248566E0	1.002227612E1
1.280045120E0	-1.459621787E-1	8.422735929E-1	9.990034103E0	1.002654034E1
1.281240953E0	-1.363908947E-1	8.374879360E-1	9.990034103E0	1.002600468E1
1.282436839E0	-1.220339537E-1	8.374879360E-1	9.982855797E0	1.001866699E1
1.283632724E0	-1.292124242E-1	8.398807645E-1	9.978070259E0	1.001418902E1
1.284828610E0	-1.387837082E-1	8.374879360E-1	9.968499184E0	1.000458010E1
1.286024443E0	-1.387837082E-1	8.374879360E-1	9.951749802E0	9.987891223E0
1.287220328E0	-1.387837082E-1	8.422735929E-1	9.942177773E0	9.978756665E0
1.288416214E0	-1.387837082E-1	8.422735929E-1	9.939785004E0	9.976372670E0
1.289612047E0	-1.220339537E-1	8.350951076E-1	9.927821159E0	9.963629313E0
1.290807933E0	-1.076770201E-1	8.327022791E-1	9.915857315E0	9.951342307E0
1.292003818E0	-1.124626622E-1	8.350951076E-1	9.903892517E0	9.939673972E0
1.293199651E0	-1.196411327E-1	8.422735929E-1	9.894321442E0	9.930827538E0
1.294395537E0	-1.100698411E-1	8.518448472E-1	9.891928673E0	9.929149404E0
1.295591422E0	-8.614161611E-2	8.518448472E-1	9.884750366E0	9.921761427E0
1.296787308E0	-7.417750359E-2	8.518448472E-1	9.875179291E0	9.912129336E0
1.297983141E0	-6.699903309E-2	8.494520187E-1	9.863214493E0	9.899952411E0
1.299179026E0	-5.982056633E-2	8.446664214E-1	9.853643417E0	9.889960994E0
1.300374912E0	-5.742774159E-2	8.542376757E-1	9.841679573E0	9.878849972E0
1.301570745E0	-4.785645381E-2	8.709874153E-1	9.834501266E0	9.873111185E0
1.302766630E0	-4.307080805E-2	8.757730722E-1	9.820143700E0	9.859211726E0
1.303962516E0	-2.871387079E-2	8.709874153E-1	9.805787086E0	9.844435177E0
1.305158349E0	-4.785645287E-3	8.662018180E-1	9.805787086E0	9.843972210E0
1.306354235E0	4.785645287E-3	8.662018180E-1	9.812965393E0	9.851122692E0
1.307550120E0	1.674975827E-2	8.709874153E-1	9.808179855E0	9.846790934E0
1.308746005E0	3.828516230E-2	8.757730722E-1	9.791430473E0	9.830592807E0
1.309941839E0	5.264209956E-2	8.805587292E-1	9.774680138E0	9.814404040E0
1.311137724E0	6.460621208E-2	8.829515576E-1	9.753145218E0	9.793243541E0
1.312333610E0	6.460621208E-2	8.973084688E-1	9.731609344E0	9.773103749E0
1.313529443E0	5.264209956E-2	9.188438654E-1	9.714859962E0	9.758357922E0
1.314725328E0	4.546362907E-2	9.284151793E-1	9.705288887E0	9.749700204E0
1.315921214E0	4.546362907E-2	9.355936646E-1	9.690931320E0	9.736095331E0
1.317117099E0	4.307080805E-2	9.427721500E-1	9.681360245E0	9.727250928E0
1.318312933E0	5.024927482E-2	9.475577474E-1	9.683753014E0	9.730131710E0
1.319508818E0	4.307080805E-2	9.547362328E-1	9.686145782E0	9.733180184E0
1.320704703E0	3.349951655E-2	9.523434043E-1	9.690931320E0	9.737670668E0
1.321900537E0	3.110669367E-2	9.571290612E-1	9.693324089E0	9.740513106E0
1.323096422E0	2.153540403E-2	9.643075466E-1	9.700503349E0	9.748339246E0
1.324292308E0	1.435693540E-2	9.619147182E-1	9.714859962E0	9.762376255E0
1.325488141E0	1.674975827E-2	9.643075466E-1	9.731609344E0	9.779283718E0
1.326684026E0	1.674975827E-2	9.714859724E-1	9.741181374E0	9.789518890E0
1.327879912E0	2.153540403E-2	9.762716293E-1	9.750752449E0	9.799527713E0
1.329075797E0	2.871387079E-2	9.786644578E-1	9.757930756E0	9.806927207E0
1.330271630E0	3.110669367E-2	9.834501147E-1	9.760323524E0	9.809793935E0
1.331467516E0	2.871387079E-2	9.810572863E-1	9.765109062E0	9.814308579E0
1.332663401E0	3.110669367E-2	9.954141974E-1	9.772287369E0	9.822902701E0
1.333859235E0	2.632104978E-2	1.007378340E0	9.781859398E0	9.833629910E0
1.335055120E0	1.674975827E-2	1.000199914E0	9.798608780E0	9.849538793E0
1.336251005E0	1.196411345E-2	9.954141974E-1	9.805787086E0	9.856188561E0
1.337446839E0	1.435693540E-2	9.906286001E-1	9.817750931E0	9.867612907E0
1.338642724E0	1.674975827E-2	9.954141974E-1	9.827322960E0	9.877621502E0
1.339838610E0	1.674975827E-2	1.012163997E0	9.836894035E0	9.888844259E0
1.341034443E0	9.571290575E-3	1.024128079E0	9.834501266E0	9.887686539E0
1.342230328E0	1.435693540E-2	1.028913736E0	9.827322960E0	9.881049851E0
1.343426214E0	2.392822690E-2	1.024128079E0	9.829715729E0	9.882951087E0
1.344622099E0	2.871387079E-2	1.016949654E0	9.834501266E0	9.886982666E0
1.345817933E0	2.871387079E-2	1.009771109E0	9.844072342E0	9.895767906E0
1.347013818E0	2.871387079E-2	1.012163997E0	9.860821724E0	9.912673984E0
1.348209703E0	4.307080805E-2	1.016949654E0	9.875179291E0	9.927497556E0
1.349405537E0	5.264209956E-2	1.019342422E0	9.875179291E0	9.927789089E0
1.350601422E0	6.221338734E-2	1.024128079E0	9.868000984E0	9.921197118E0
1.351797308E0	7.178468257E-2	1.024128079E0	9.863214493E0	9.916500970E0
1.352993193E0	8.853443712E-2	1.021735311E0	9.863214493E0	9.916389541E0
1.354189026E0	9.810572863E-2	1.024128079E0	9.868000984E0	9.921487110E0
1.355384912E0	1.196411327E-1	1.033699393E0	9.868000984E0	9.922715952E0
1.356580797E0	1.363908947E-1	1.040877819E0	9.863214493E0	9.918922786E0
1.357776630E0	1.316052526E-1	1.033699393E0	9.856036186E0	9.910968857E0
1.358972516E0	1.435693651E-1	1.024128079E0	9.844072342E0	9.898242812E0
1.360168401E0	1.555334777E-1	1.024128079E0	9.836894035E0	9.891284712E0
1.361364235E0	1.746760458E-1	1.024128079E0	9.829715729E0	9.884465658E0
1.362560120E0	2.033899277E-1	1.026520967E0	9.834501266E0	9.890021634E0
1.363756005E0	2.297109663E-1	1.026520967E0	9.839286804E0	9.895356347E0
1.364951891E0	2.440679073E-1	1.026520967E0	9.839286804E0	9.895700039E0
1.366147724E0	2.512463629E-1	1.028913736E0	9.848857880E0	9.905644338E0
1.367343610E0	2.512463629E-1	1.031306505E0	9.865608215E0	9.922547218E0
1.368539495E0	2.560320199E-1	1.038485050E0	9.872786522E0	9.930554733E0
1.369735328E0	2.751746178E-1	1.038485050E0	9.870393753E0	9.928687985E0
1.370931214E0	2.919243574E-1	1.028913736E0	9.856036186E0	9.913895935E0
1.372127099E0	2.967100143E-1	1.024128079E0	9.841679573E0	9.899269265E0
1.373322933E0	3.014956415E-1	1.028913736E0	9.839286804E0	9.897531405E0
1.374518818E0	3.086741269E-1	1.036092162E0	9.836894035E0	9.896123026E0
1.375714703E0	3.158525825E-1	1.038485050E0	9.832108498E0	9.891843689E0
1.376910537E0	3.110669553E-1	1.036092162E0	9.832108498E0	9.891441105E0
1.378106422E0	2.991028428E-1	1.040877819E0	9.820143700E0	9.879681747E0
1.379302308E0	2.991028428E-1	1.052842021E0	9.791430473E0	9.852413387E0
1.380498193E0	3.014956415E-1	1.057627559E0	9.767501831E0	9.829220096E0
1.381694026E0	3.134597540E-1	1.055234790E0	9.755537987E0	9.817448696E0
1.382889912E0	3.254238665E-1	1.055234790E0	9.750752449E0	9.813082822E0
1.384085797E0	3.230310678E-1	1.050449133E0	9.741181374E0	9.802979496E0
1.385281630E0	3.278166950E-1	1.048056364E0	9.726823807E0	9.788615188E0
1.386477516E0	3.254238665E-1	1.057627559E0	9.707681656E0	9.770545526E0
1.387673401E0	3.230310678E-1	1.064806104E0	9.688538551E0	9.752227457E0
1.388869287E0	3.326023519E-1	1.060020447E0	9.671789169E0	9.735387687E0
1.390065120E0	3.349951804E-1	1.055234790E0	9.659825325E0	9.723063691E0
1.391261005E0	3.326023519E-1	1.043270707E0	9.664610863E0	9.726445457E0
1.392456891E0	3.397808075E-1	1.036092162E0	9.664610863E0	9.725926233E0
1.393652724E0	3.469592929E-1	1.040877819E0	9.657432556E0	9.719558167E0
1.394848610E0	3.445664644E-1	1.038485050E0	9.659825325E0	9.721594651E0
1.396044495E0	3.397808075E-1	1.031306505E0	9.662218094E0	9.723039782E0
1.397240328E0	3.349951804E-1	1.026520967E0	9.655039787E0	9.715233418E0
1.398436214E0	3.541377485E-1	1.021735311E0	9.652647018E0	9.713029962E0
1.399632099E0	3.637090325E-1	1.016949654E0	9.662218094E0	9.722393191E0
1.400827933E0	3.589234054E-1	1.004985452E0	9.681360245E0	9.739997842E0
1.402023818E0	3.493520916E-1	1.002592683E0	9.678967476E0	9.737024719E0
1.403219703E0	3.445664644E-1	1.002592683E0	9.669396400E0	9.727340072E0
1.404415589E0	3.493520916E-1	1.012163997E0	9.659825325E0	9.718989050E0
1.405611422E0	3.541377485E-1	1.021735311E0	9.645467758E0	9.705895366E0
1.406807308E0	3.613162339E-1	1.024128079E0	9.638289452E0	9.699278906E0
1.408003193E0	3.541377485E-1	1.031306505E0	9.645467758E0	9.706907588E0
1.409199078E0	3.445664644E-1	1.036092162E0	9.643074989E0	9.704695166E0
1.410394912E0	3.493520916E-1	1.038485050E0	9.640682220E0	9.702744548E0
1.411590797E0	3.589234054E-1	1.040877819E0	9.643074989E0	9.705727582E0
1.412786683E0	3.613162339E-1	1.036092162E0	9.638289452E0	9.700549466E0
1.413982516E0	3.589234054E-1	1.024128079E0	9.623932838E0	9.684923728E0
1.415178401E0	3.541377485E-1	1.021735311E0	9.611968994E0	9.672605881E0
1.416374287E0	3.493520916E-1	1.036092162E0	9.611968994E0	9.673958952E0
1.417570120E0	3.421736360E-1	1.048056364E0	9.609575272E0	9.672612979E0
1.418766005E0	3.254238665E-1	1.045663476E0	9.609575272E0	9.671775933E0
1.419961891E0	3.038884699E-1	1.040877819E0	9.609575272E0	9.670559019E0
1.421157776E0	2.991028428E-1	1.036092162E0	9.602396965E0	9.662762387E0
1.422353610E0	3.086741269E-1	1.028913736E0	9.588040352E0	9.648028865E0
1.423549495E0	3.134597540E-1	1.028913736E0	9.585647583E0	9.645805310E0
1.424745380E0	3.110669553E-1	1.038485050E0	9.585647583E0	9.646753518E0
1.425941214E0	3.134597540E-1	1.043270707E0	9.590433121E0	9.652102270E0
1.427137099E0	3.110669553E-1	1.048056364E0	9.590433121E0	9.652543304E0
1.428332985E0	3.038884699E-1	1.050449133E0	9.590433121E0	9.652574736E0
1.429528818E0	2.943171859E-1	1.052842021E0	9.595218658E0	9.657293618E0
1.430724703E0	2.847459018E-1	1.064806104E0	9.597611427E0	9.660695491E0
1.431920589E0	2.871387303E-1	1.069591761E0	9.597611427E0	9.661294959E0
1.433116422E0	2.919243574E-1	1.071984529E0	9.604789734E0	9.668834288E0
1.434312308E0	2.751746178E-1	1.069591761E0	9.611968994E0	9.675210362E0
1.435508193E0	2.608176768E-1	1.074377418E0	9.614361763E0	9.677720021E0
1.436704078E0	2.727817893E-1	1.079162955E0	9.614361763E0	9.678582267E0
1.437899912E0	2.943171859E-1	1.076770186E0	9.609575272E0	9.674192139E0
1.439095797E0	2.991028428E-1	1.086341500E0	9.611968994E0	9.677786333E0
1.440291683E0	3.038884699E-1	1.098305583E0	9.609575272E0	9.676908611E0
1.441487516E0	3.038884699E-1	1.105484009E0	9.602396965E0	9.670598253E0
1.442683401E0	2.943171859E-1	1.107876897E0	9.590433121E0	9.658696665E0
1.443879287E0	3.038884699E-1	1.107876897E0	9.580862045E0	9.649489984E0
1.445075120E0	3.182454109E-1	1.112662554E0	9.571290970E0	9.641001448E0
1.446271005E0	3.254238665E-1	1.115055323E0	9.561718941E0	9.632015270E0
1.447466891E0	3.302095234E-1	1.112662554E0	9.547362328E0	9.617649593E0
1.448662724E0	3.349951804E-1	1.107876897E0	9.535398483E0	9.605385845E0
1.449858610E0	3.349951804E-1	1.105484009E0	9.523433685E0	9.593232293E0
1.451054495E0	3.445664644E-1	1.105484009E0	9.509077072E0	9.579319793E0
1.452250380E0	3.637090325E-1	1.098305583E0	9.504291534E0	9.574451263E0
1.453446214E0	3.708875179E-1	1.107876897E0	9.499505997E0	9.571079508E0
1.454642099E0	3.732803464E-1	1.115055323E0	9.485149384E0	9.557758389E0
1.455837985E0	3.661018610E-1	1.119840980E0	9.470791817E0	9.543792329E0
1.457033818E0	3.637090325E-1	1.112662554E0	9.463613510E0	9.535737144E0
1.458229703E0	3.804588020E-1	1.105484009E0	9.461220741E0	9.533181091E0
1.459425589E0	3.996013701E-1	1.095912814E0	9.456435204E0	9.528109619E0
1.460621422E0	4.139583111E-1	1.079162955E0	9.449256897E0	9.519685398E0
1.461817308E0	4.283152521E-1	1.069591761E0	9.437292099E0	9.507363602E0
1.463013193E0	4.331009090E-1	1.071984529E0	9.422935486E0	9.493599970E0
1.464209078E0	4.307080805E-1	1.067198873E0	9.415757179E0	9.485826593E0
1.465404912E0	4.331009090E-1	1.064806104E0	9.418149948E0	9.488041783E0
1.466600797E0	4.426721931E-1	1.071984529E0	9.420542717E0	9.491666586E0
1.467796683E0	4.522434771E-1	1.060020447E0	9.420542717E0	9.490774078E0
1.468992516E0	4.546363056E-1	1.050449133E0	9.422935486E0	9.492199467E0
1.470188401E0	4.522434771E-1	1.052842021E0	9.430113792E0	9.499476124E0
1.471384287E0	4.546363056E-1	1.038485050E0	9.437292099E0	9.505136902E0
1.472580120E0	4.570291340E-1	1.012163997E0	9.442078590E0	9.507165702E0
1.473776005E0	4.618147612E-1	1.002592683E0	9.458827972E0	9.523019037E0
1.474971891E0	4.689932466E-1	1.000199914E0	9.477970123E0	9.542131428E0
1.476167724E0	4.761717021E-1	1.002592683E0	9.485149384E0	9.549868607E0
1.477363610E0	4.689932466E-1	1.002592683E0	9.497113228E0	9.561396677E0
1.478559495E0	4.618147612E-1	9.930213690E-1	9.509077072E0	9.571933508E0
1.479755380E0	4.666004181E-1	9.762716293E-1	9.518648148E0	9.579952234E0
1.480951214E0	4.618147612E-1	9.738788009E-1	9.533005714E0	9.593743312E0
1.482147099E0	4.522434771E-1	9.810572863E-1	9.547362328E0	9.608284185E0
1.483342985E0	4.474578202E-1	9.810572863E-1	9.561718941E0	9.622326174E0
1.484538818E0	4.474578202E-1	9.667003751E-1	9.576076508E0	9.635142417E0
1.485734703E0	4.426721931E-1	9.547362328E-1	9.600004196E0	9.657513164E0
1.486930589E0	4.259224236E-1	9.403793216E-1	9.614361763E0	9.669626430E0
1.488126422E0	4.091726840E-1	9.212366939E-1	9.616754532E0	9.669439852E0
1.489322308E0	3.996013701E-1	9.164510965E-1	9.626325607E0	9.678104596E0
1.490518193E0	3.876372576E-1	9.260223508E-1	9.635896683E0	9.688048561E0
1.491714078E0	3.852444589E-1	9.236295223E-1	9.650253296E0	9.702004611E0
1.492909912E0	3.804588020E-1	9.092726111E-1	9.669396400E0	9.719503708E0
1.494105797E0	3.732803464E-1	9.140582681E-1	9.698110580E0	9.748240332E0
1.495301683E0	3.589234054E-1	9.236295223E-1	9.726823807E0	9.777168244E0
1.496497516E0	3.421736360E-1	9.332008362E-1	9.748359680E0	9.798901115E0
1.497693401E0	3.397808075E-1	9.451649189E-1	9.772287369E0	9.823766495E0
1.498889287E0	3.397808075E-1	9.547362328E-1	9.796216011E0	9.848493306E0
1.500085120E0	3.373879790E-1	9.595218897E-1	9.820143700E0	9.872676192E0
1.501281005E0	3.254238665E-1	9.643075466E-1	9.851250648E0	9.903682602E0
1.502476891E0	3.254238665E-1	9.738788009E-1	9.879964828E0	9.933179029E0
1.503672724E0	3.302095234E-1	9.762716293E-1	9.903892517E0	9.957370718E0
1.504868610E0	3.230310678E-1	9.738788009E-1	9.915857315E0	9.968802099E0
1.506064495E0	3.254238665E-1	9.810572863E-1	9.915857315E0	9.969583762E0
1.507260380E0	3.278166950E-1	9.834501147E-1	9.918250084E0	9.972277706E0
1.508456214E0	3.182454109E-1	9.882357717E-1	9.927821159E0	9.981959880E0
1.509652099E0	3.158525825E-1	1.002592683E0	9.932606697E0	9.988074426E0
1.510847985E0	3.206382394E-1	1.009771109E0	9.937392235E0	9.993708571E0
1.512043818E0	3.182454109E-1	1.002592683E0	9.942177773E0	9.997668283E0
1.513239703E0	3.062812984E-1	9.906286001E-1	9.956535339E0	1.001038207E1
1.514435589E0	2.967100143E-1	9.834501147E-1	9.963713646E0	1.001652637E1
1.515631422E0	2.895315289E-1	9.858429432E-1	9.958928108E0	1.001179124E1
1.516827308E0	2.799602449E-1	9.906286001E-1	9.956535339E0	1.000961132E1
1.518023193E0	2.703889608E-1	9.954141974E-1	9.956535339E0	1.000982295E1
1.519219078E0	2.632105052E-1	1.009771109E0	9.966106415E0	1.002058853E1
1.520414912E0	2.512463629E-1	1.026520967E0	9.982855797E0	1.003863934E1
1.521610797E0	2.368894368E-1	1.040877819E0	9.994820595E0	1.005166563E1
1.522806683E0	2.225325108E-1	1.055234790E0	9.999606133E0	1.005759236E1
1.524002516E0	2.081755698E-1	1.067198873E0	1.000199890E1	1.006092603E1
1.525198401E0	1.938186288E-1	1.083948612E0	1.000917721E1	1.006956497E1
1.526394287E0	1.770688742E-1	1.098305583E0	1.000439167E1	1.006605589E1
1.527590172E0	1.651047617E-1	1.105484009E0	9.992427826E0	1.005474855E1
1.528786005E0	1.435693651E-1	1.122233868E0	9.987641335E0	1.005151732E1
1.529981891E0	1.052841991E-1	1.134197950E0	9.980463028E0	1.004525420E1
1.531177776E0	7.178468257E-2	1.138983607E0	9.963713646E0	1.002885967E1
1.532373610E0	6.221338734E-2	1.141376376E0	9.946963310E0	1.001242676E1
1.533569495E0	6.221338734E-2	1.138983607E0	9.939785004E0	1.000502274E1
1.534765380E0	6.939185411E-2	1.138983607E0	9.934999466E0	1.000031566E1
1.535961214E0	6.460621208E-2	1.143769264E0	9.925428391E0	9.991321776E0
1.537157099E0	5.264209956E-2	1.162911773E0	9.911071777E0	9.979202311E0
1.538352985E0	4.067798331E-2	1.179661512E0	9.894321442E0	9.964479554E0
1.539548818E0	1.674975827E-2	1.184447169E0	9.879964828E0	9.950723625E0
1.540744703E0	7.178467698E-3	1.177268744E0	9.870393753E0	9.940356436E0
1.541940589E0	9.571290575E-3	1.184447169E0	9.863214493E0	9.934083090E0
1.543136422E0	9.571290575E-3	1.191625714E0	9.863214493E0	9.934941549E0
1.544332308E0	-2.392822644E-3	1.191625714E0	9.863214493E0	9.934937227E0
1.545528193E0	-3.110669367E-2	1.191625714E0	9.853643417E0	9.925483770E0
1.546724078E0	-5.264209956E-2	1.194018483E0	9.848857880E0	9.921111473E0
1.547919912E0	-4.785645381E-2	1.198804140E0	9.858428955E0	9.931165242E0
1.549115797E0	-3.828516230E-2	1.198804140E0	9.877572060E0	9.950126980E0
1.550311683E0	-2.632104978E-2	1.201196909E0	9.875179291E0	9.948001449E0
1.551507516E0	-2.871387079E-2	1.205982566E0	9.868000984E0	9.941461757E0
1.552703401E0	-2.153540403E-2	1.201196909E0	9.863214493E0	9.936112817E0
1.553899287E0	-1.435693540E-2	1.194018483E0	9.858428955E0	9.930483761E0
1.555095120E0	-1.196411345E-2	1.191625714E0	9.848857880E0	9.920691333E0
1.556291005E0	-7.178467698E-3	1.189232826E0	9.836894035E0	9.908522115E0
1.557486891E0	-9.571290575E-3	1.194018483E0	9.827322960E0	9.899598391E0
1.558682776E0	-2.153540403E-2	1.208375454E0	9.817750931E0	9.891858690E0
1.559878610E0	-3.110669367E-2	1.213161111E0	9.803394318E0	9.878221887E0
1.561074495E0	-3.589234129E-2	1.217946768E0	9.786644936E0	9.862205721E0
1.562270380E0	-5.264209956E-2	1.227517962E0	9.774680138E0	9.851595979E0
1.563466214E0	-6.460621208E-2	1.229910851E0	9.762716293E0	9.840095736E0
1.564662099E0	-6.699903309E-2	1.225125194E0	9.753145218E0	9.830018426E0
1.565857985E0	-6.221338734E-2	1.213161111E0	9.748359680E0	9.823754213E0
1.567053818E0	-6.221338734E-2	1.203589797E0	9.753145218E0	9.827326216E0
1.568249703E0	-7.657032460E-2	1.196411371E0	9.767501831E0	9.840800537E0
1.569445589E0	-8.853443712E-2	1.189232826E0	9.772287369E0	9.844781028E0
1.570641422E0	-8.614161611E-2	1.189232826E0	9.774680138E0	9.847134958E0
1.571837308E0	-8.614161611E-2	1.186840057E0	9.779465675E0	9.851596754E0
1.573033193E0	-9.332008660E-2	1.174875975E0	9.796216011E0	9.866858179E0
1.574229078E0	-9.332008660E-2	1.177268744E0	9.810572624E0	9.881396943E0
1.575424912E0	-1.004985496E-1	1.174875975E0	9.815358162E0	9.885933914E0
1.576620797E0	-1.124626622E-1	1.170090318E0	9.812965393E0	9.883119397E0
1.577816683E0	-1.268195957E-1	1.170090318E0	9.817750931E0	9.888044696E0
1.579012516E0	-1.363908947E-1	1.172483087E0	9.832108498E0	9.902710567E0
1.580208401E0	-1.483550072E-1	1.179661512E0	9.839286804E0	9.910861482E0
1.581404287E0	-1.651047617E-1	1.184447169E0	9.834501266E0	9.906946545E0
1.582600120E0	-1.722832322E-1	1.174875975E0	9.827322960E0	9.898802535E0
1.583796005E0	-1.914258152E-1	1.162911773E0	9.836894035E0	9.907244415E0
1.584991891E0	-2.105683982E-1	1.158126116E0	9.858428955E0	9.928454896E0
1.586187776E0	-2.105683982E-1	1.150947690E0	9.882357597E0	9.951382382E0
1.587383610E0	-2.033899277E-1	1.143769264E0	9.906285286E0	9.974169828E0
1.588579495E0	-2.105683982E-1	1.122233868E0	9.915857315E0	9.981381377E0
1.589775380E0	-2.081755698E-1	1.093519926E0	9.923035622E0	9.985277104E0
1.590971214E0	-2.081755698E-1	1.081555843E0	9.939785004E0	1.000062128E1
1.592167099E0	-2.177468538E-1	1.079162955E0	9.968499184E0	1.002910676E1
1.593362985E0	-2.344966233E-1	1.074377418E0	9.987641335E0	1.004799756E1
1.594558818E0	-2.488535494E-1	1.064806104E0	9.997213364E0	1.005683922E1
1.595754703E0	-2.512463629E-1	1.052842021E0	1.000439167E1	1.006277565E1
1.596950589E0	-2.512463629E-1	1.043270707E0	1.001874828E1	1.007605358E1
1.598146422E0	-2.512463629E-1	1.038485050E0	1.004028416E1	1.009697390E1
1.599342308E0	-2.440679073E-1	1.043270707E0	1.006421185E1	1.012108408E1
1.600538193E0	-2.536391914E-1	1.040877819E0	1.008335495E1	1.014010880E1
1.601734078E0	-2.703889608E-1	1.031306505E0	1.009771156E1	1.015384076E1
1.602929912E0	-2.823530734E-1	1.028913736E0	1.011206818E1	1.016820090E1
1.604125797E0	-2.871387303E-1	1.038485050E0	1.012403297E1	1.018120541E1
1.605321683E0	-2.895315289E-1	1.038485050E0	1.012642574E1	1.018365249E1
1.606517516E0	-2.823530734E-1	1.036092162E0	1.013599682E1	1.019272494E1
1.607713401E0	-2.799602449E-1	1.045663476E0	1.014317513E1	1.020077406E1
1.608909287E0	-2.823530734E-1	1.048056364E0	1.015035343E1	1.020822317E1
1.610105120E0	-2.799602449E-1	1.043270707E0	1.016231823E1	1.021956473E1
1.611301005E0	-2.727817893E-1	1.038485050E0	1.017428207E1	1.023078085E1
1.612496891E0	-2.703889608E-1	1.050449133E0	1.017906761E1	1.023669727E1
1.613692776E0	-2.775674164E-1	1.055234790E0	1.017906761E1	1.023738158E1
1.614888610E0	-2.871387303E-1	1.052842021E0	1.017428207E1	1.023264094E1
1.616084495E0	-2.943171859E-1	1.067198873E0	1.017667484E1	1.023671075E1
1.617280380E0	-2.871387303E-1	1.074377418E0	1.017428207E1	1.023487915E1
1.618476214E0	-2.775674164E-1	1.069591761E0	1.016710377E1	1.022697752E1
1.619672099E0	-2.799602449E-1	1.055234790E0	1.016710377E1	1.022555119E1
1.620867985E0	-2.799602449E-1	1.057627559E0	1.017428207E1	1.023293553E1
1.622063818E0	-2.679961324E-1	1.064806104E0	1.017667484E1	1.023573861E1
1.623259703E0	-2.608176768E-1	1.069591761E0	1.017906761E1	1.023843102E1
1.624455589E0	-2.608176768E-1	1.076770186E0	1.017188931E1	1.023204730E1
1.625651422E0	-2.536391914E-1	1.071984529E0	1.016231823E1	1.022184893E1
1.626847308E0	-2.512463629E-1	1.067198873E0	1.015513897E1	1.021415125E1
1.628043193E0	-2.512463629E-1	1.071984529E0	1.015513897E1	1.021465237E1
1.629239078E0	-2.440679073E-1	1.074377418E0	1.016710377E1	1.022662481E1
1.630434912E0	-2.368894368E-1	1.067198873E0	1.017667484E1	1.023522061E1
1.631630797E0	-2.368894368E-1	1.076770186E0	1.017428207E1	1.023384416E1
1.632826683E0	-2.321037948E-1	1.088734269E0	1.016710377E1	1.022786456E1
1.634022516E0	-2.153540403E-1	1.088734269E0	1.016471100E1	1.022511953E1
1.635218401E0	-2.033899277E-1	1.088734269E0	1.016949654E1	1.022963194E1
1.636414287E0	-2.105683982E-1	1.091127157E0	1.017188931E1	1.023241074E1
1.637610120E0	-2.081755698E-1	1.081555843E0	1.017188931E1	1.023134557E1
1.638806005E0	-1.890329868E-1	1.069591761E0	1.016231823E1	1.022019921E1
1.640001891E0	-1.770688742E-1	1.064806104E0	1.015035343E1	1.020758738E1
1.641197724E0	-1.770688742E-1	1.060020447E0	1.014796066E1	1.020470981E1
1.642393610E0	-1.674975902E-1	1.057627559E0	1.013599682E1	1.019240222E1
1.643589495E0	-1.579262912E-1	1.055234790E0	1.011685371E1	1.017296369E1
1.644785328E0	-1.603191197E-1	1.050449133E0	1.010249710E1	1.015822786E1
1.645981214E0	-1.627119333E-1	1.050449133E0	1.007856941E1	1.013446989E1
1.647177099E0	-1.555334777E-1	1.055234790E0	1.005464077E1	1.011105890E1
1.648372985E0	-1.555334777E-1	1.048056364E0	1.003071213E1	1.008651568E1
1.649568818E0	-1.555334777E-1	1.040877819E0	1.000199890E1	1.005721628E1
1.650764703E0	-1.435693651E-1	1.048056364E0	9.968499184E0	1.002447057E1
1.651960589E0	-1.459621787E-1	1.057627559E0	9.937392235E0	9.994580804E0
1.653156422E0	-1.603191197E-1	1.055234790E0	9.915857315E0	9.973136366E0
1.654352308E0	-1.579262912E-1	1.052842021E0	9.894321442E0	9.951432752E0
1.655548193E0	-1.531406492E-1	1.052842021E0	9.872786522E0	9.929946731E0
1.656744026E0	-1.507478207E-1	1.055234790E0	9.851250648E0	9.908752934E0
1.657939912E0	-1.387837082E-1	1.060020447E0	9.827322960E0	9.885301251E0
1.659135797E0	-1.244267747E-1	1.069591761E0	9.810572624E0	9.869490553E0
1.660331683E0	-1.244267747E-1	1.067198873E0	9.796216011E0	9.854960355E0
1.661527516E0	-1.411765367E-1	1.055234790E0	9.774680138E0	9.832488142E0
1.662723401E0	-1.579262912E-1	1.052842021E0	9.750752449E0	9.808699728E0
1.663919287E0	-1.674975902E-1	1.043270707E0	9.731609344E0	9.788804301E0
1.665115120E0	-1.627119333E-1	1.026520967E0	9.705288887E0	9.760781365E0
1.666311005E0	-1.603191197E-1	1.021735311E0	9.683753014E0	9.738825273E0
1.667506891E0	-1.674975902E-1	1.016949654E0	9.662218094E0	9.717031467E0
1.668702724E0	-1.674975902E-1	1.004985452E0	9.647860527E0	9.701508334E0
1.669898610E0	-1.579262912E-1	1.000199914E0	9.633503914E0	9.686575155E0
1.671094495E0	-1.507478207E-1	1.004985452E0	9.619147301E0	9.672678815E0
1.672290328E0	-1.483550072E-1	1.007378340E0	9.621540070E0	9.675270210E0
1.673486214E0	-1.531406492E-1	1.009771109E0	9.611968994E0	9.666076644E0
1.674682099E0	-1.531406492E-1	1.019342422E0	9.607182503E0	9.662322013E0
1.675878714E0	-1.411765367E-1	1.024128079E0	9.597611427E0	9.653129764E0
1.677073818E0	-1.292124242E-1	1.028913736E0	9.578469276E0	9.634439943E0
1.678269703E0	-1.339980662E-1	1.040877819E0	9.566504478E0	9.623896823E0
1.679465589E0	-1.483550072E-1	1.045663476E0	9.549755096E0	9.607978128E0
1.680661422E0	-1.459621787E-1	1.043270707E0	9.530612946E0	9.588654851E0
1.681857308E0	-1.292124242E-1	1.033699393E0	9.511469841E0	9.568348281E0
1.683053193E0	-1.220339537E-1	1.033699393E0	9.492327690E0	9.549225712E0
1.684249026E0	-1.316052526E-1	1.040877819E0	9.477970123E0	9.535862008E0
1.685444912E0	-1.435693651E-1	1.050449133E0	9.463613510E0	9.522816611E0
1.686640797E0	-1.483550072E-1	1.050449133E0	9.454042435E0	9.513378524E0
1.687836683E0	-1.411765367E-1	1.033699393E0	9.444471359E0	9.501921096E0
1.689032516E0	-1.387837082E-1	1.021735311E0	9.432506561E0	9.488697697E0
1.690228401E0	-1.363908947E-1	1.019342422E0	9.422935486E0	9.478891002E0
1.691424235E0	-1.387837082E-1	1.016949654E0	9.425328255E0	9.481047422E0
1.692620120E0	-1.531406492E-1	1.024128079E0	9.432506561E0	9.489176487E0
1.693816005E0	-1.722832322E-1	1.036092162E0	9.422935486E0	9.481291138E0
1.695011891E0	-1.818545163E-1	1.028913736E0	9.420542717E0	9.478309956E0
1.696207724E0	-1.770688742E-1	1.014556766E0	9.422935486E0	9.479050163E0
1.697403610E0	-1.770688742E-1	1.012163997E0	9.432506561E0	9.488309089E0
1.698599495E0	-1.842473447E-1	1.014556766E0	9.446864128E0	9.502973975E0
1.699795328E0	-1.914258152E-1	1.004985452E0	9.454042435E0	9.509235403E0
1.700991214E0	-1.986042857E-1	9.930213690E-1	9.473184586E0	9.527159141E0
1.702187099E0	-2.105683982E-1	9.882357717E-1	9.485149384E0	9.538815850E0
1.703382933E0	-2.344966233E-1	9.858429432E-1	9.497113228E0	9.551022701E0
1.704578818E0	-2.488535494E-1	9.786644578E-1	9.513862610E0	9.567303380E0
1.705774703E0	-2.512463629E-1	9.690931439E-1	9.528220177E0	9.580670435E0
1.706970589E0	-2.679961324E-1	9.643075466E-1	9.549755096E0	9.602058809E0
1.708166422E0	-2.919243574E-1	9.619147182E-1	9.566504478E0	9.619173961E0
1.709362308E0	-3.062812984E-1	9.667003751E-1	9.583254814E0	9.636757270E0
1.710558193E0	-3.110669553E-1	9.667003751E-1	9.602396965E0	9.655946341E0
1.711754026E0	-3.182454109E-1	9.571290612E-1	9.626325607E0	9.679024790E0
1.712949912E0	-3.278166950E-1	9.523434043E-1	9.657432556E0	9.709810777E0
1.714146162E0	-3.326023519E-1	9.427721500E-1	9.686145782E0	9.737600514E0
1.715341630E0	-3.373879790E-1	9.308080077E-1	9.705288887E0	9.755658183E0
1.716537516E0	-3.469592929E-1	9.332008362E-1	9.710074425E0	9.760983039E0
1.717733401E0	-3.565305769E-1	9.188438654E-1	9.726823807E0	9.776629760E0
1.718929235E0	-3.613162339E-1	9.068797827E-1	9.743574142E0	9.792355050E0
1.720125120E0	-3.684946895E-1	9.044869542E-1	9.750752449E0	9.799543781E0
1.721321005E0	-3.661018610E-1	9.092726111E-1	9.777072906E0	9.826085786E0
1.722516891E0	-3.613162339E-1	9.140582681E-1	9.815358162E0	9.864446654E0
1.723712724E0	-3.684946895E-1	9.212366939E-1	9.829715729E0	9.879664807E0
1.724908610E0	-3.828516304E-1	9.164510965E-1	9.832108498E0	9.882146300E0
1.726104495E0	-3.876372576E-1	9.092726111E-1	9.839286804E0	9.888812069E0
1.727300328E0	-3.948157430E-1	9.068797827E-1	9.846465111E0	9.896018674E0
1.728496214E0	-4.091726840E-1	9.020941257E-1	9.846465111E0	9.896164473E0
1.729692099E0	-4.043870270E-1	8.973084688E-1	9.851250648E0	9.900294475E0
1.730887933E0	-3.924229145E-1	8.901300430E-1	9.860821724E0	9.908689737E0
1.732083818E0	-3.876372576E-1	8.877372146E-1	9.853643417E0	9.901142793E0
1.733279703E0	-3.948157430E-1	8.949156404E-1	9.853643417E0	9.902072615E0
1.734475537E0	-4.019941986E-1	8.973084688E-1	9.860821724E0	9.909720828E0
1.735671422E0	-3.996013701E-1	8.973084688E-1	9.858428955E0	9.907243068E0
1.736867308E0	-3.996013701E-1	8.949156404E-1	9.851250648E0	9.899883565E0
1.738063193E0	-4.019941986E-1	8.901300430E-1	9.839286804E0	9.887643584E0
1.739259026E0	-3.996013701E-1	8.853443861E-1	9.832108498E0	9.879973352E0
1.740454912E0	-3.948157430E-1	8.853443861E-1	9.817750931E0	9.865492765E0
1.741650797E0	-3.924229145E-1	8.877372146E-1	9.796216011E0	9.844182101E0
1.742846630E0	-3.948157430E-1	8.925228715E-1	9.777072906E0	9.825661869E0
1.744042516E0	-3.948157430E-1	9.020941257E-1	9.757930756E0	9.807490296E0
1.745238401E0	-3.900300860E-1	9.116654396E-1	9.731609344E0	9.781997637E0
1.746434235E0	-3.804588020E-1	9.164510965E-1	9.702896118E0	9.753503196E0
1.747630120E0	-3.756731451E-1	9.212366939E-1	9.693324089E0	9.744246469E0
1.748826005E0	-3.661018610E-1	9.308080077E-1	9.686145782E0	9.737651372E0
1.750021839E0	-3.445664644E-1	9.355936646E-1	9.686145782E0	9.737324154E0
1.751217724E0	-3.326023519E-1	9.499505758E-1	9.690931320E0	9.743058056E0
1.752413610E0	-3.158525825E-1	9.595218897E-1	9.683753014E0	9.736298965E0
1.753609495E0	-3.062812984E-1	9.547362328E-1	9.678967476E0	9.730762607E0
1.754805328E0	-3.038884699E-1	9.547362328E-1	9.678967476E0	9.730687585E0
1.756001214E0	-3.062812984E-1	9.619147182E-1	9.676574707E0	9.729089691E0
1.757197099E0	-2.967100143E-1	9.619147182E-1	9.671789169E0	9.724033242E0
1.758392933E0	-2.799602449E-1	9.667003751E-1	9.676574707E0	9.728771013E0
1.759588818E0	-2.608176768E-1	9.690931439E-1	9.678967476E0	9.730857042E0
1.760784703E0	-2.464607358E-1	9.643075466E-1	9.676574707E0	9.727627152E0
1.761980537E0	-2.321037948E-1	9.643075466E-1	9.676574707E0	9.727273990E0
1.763176422E0	-2.033899277E-1	9.643075466E-1	9.676574707E0	9.726631203E0
1.764372308E0	-1.722832322E-1	9.738788009E-1	9.671789169E0	9.722223365E0
1.765568141E0	-1.483550072E-1	9.762716293E-1	9.674181938E0	9.724449171E0
1.766764026E0	-1.196411327E-1	9.738788009E-1	9.669396400E0	9.719052457E0
1.767959912E0	-8.853443712E-2	9.690931439E-1	9.659825325E0	9.708717999E0
1.769155745E0	-6.221338734E-2	9.738788009E-1	9.650253296E0	9.699469011E0
1.770351630E0	-3.589234129E-2	9.714859724E-1	9.638289452E0	9.687192411E0
1.771547516E0	-4.785645287E-3	9.714859724E-1	9.638289452E0	9.687127100E0
1.772743401E0	1.435693540E-2	9.690931439E-1	9.640682220E0	9.689277647E0
1.773939235E0	2.153540403E-2	9.523434043E-1	9.640682220E0	9.687630020E0
1.775135120E0	3.110669367E-2	9.523434043E-1	9.652647018E0	9.699562879E0
1.776331005E0	4.307080805E-2	9.762716293E-1	9.669396400E0	9.718651560E0
1.777526839E0	5.742774159E-2	9.786644578E-1	9.690931320E0	9.740391774E0
1.778722724E0	7.178468257E-2	9.738788009E-1	9.714859962E0	9.763815701E0
1.779918610E0	8.135596663E-2	9.834501147E-1	9.731609344E0	9.781513858E0
1.781114443E0	8.614161611E-2	9.954141974E-1	9.753145218E0	9.804188464E0
1.782310328E0	9.092725813E-2	9.978070259E-1	9.781859398E0	9.833039200E0
1.783506214E0	9.092725813E-2	9.954141974E-1	9.815358162E0	9.866122493E0
1.784702047E0	9.810572863E-2	9.882357717E-1	9.839286804E0	9.889276995E0
1.785897933E0	1.052841991E-1	9.858429432E-1	9.856036186E0	9.905777121E0
1.787093818E0	9.810572863E-2	9.858429432E-1	9.872786522E0	9.922369916E0
1.788289703E0	9.571290761E-2	9.738788009E-1	9.882357597E0	9.930689430E0
1.789485537E0	1.052841991E-1	9.690931439E-1	9.899106979E0	9.946986743E0
1.790681422E0	1.196411327E-1	9.762716293E-1	9.901499748E0	9.950232035E0
1.791877308E0	1.387837082E-1	9.786644578E-1	9.908679008E0	9.957859445E0
1.793073141E0	1.531406492E-1	9.738788009E-1	9.920642853E0	9.969505835E0
1.794269026E0	1.603191197E-1	9.738788009E-1	9.918250084E0	9.967237675E0
1.795464912E0	1.651047617E-1	9.810572863E-1	9.906285286E0	9.956114762E0
1.796660745E0	1.722832322E-1	9.858429432E-1	9.894321442E0	9.944805911E0
1.797856630E0	1.746760458E-1	9.858429432E-1	9.887143135E0	9.937705842E0
1.799052516E0	1.722832322E-1	9.930213690E-1	9.875179291E0	9.926476665E0
1.800248349E0	1.674975902E-1	1.007378340E0	9.863214493E0	9.915940031E0
1.801444235E0	1.531406492E-1	1.016949654E0	9.844072342E0	9.897646131E0
1.802640120E0	1.411765367E-1	1.014556766E0	9.820143700E0	9.873422837E0
1.803835953E0	1.387837082E-1	1.014556766E0	9.796216011E0	9.849590574E0
1.805031839E0	1.363908947E-1	1.028913736E0	9.779465675E0	9.834389399E0
1.806227724E0	1.244267747E-1	1.031306505E0	9.769894600E0	9.824963899E0
1.807423610E0	1.052841991E-1	1.028913736E0	9.757930756E0	9.812591955E0
1.808619443E0	8.853443712E-2	1.024128079E0	9.750752449E0	9.804787096E0
1.809815328E0	7.417750359E-2	1.016949654E0	9.738788605E0	9.792021874E0
1.811011214E0	5.742774159E-2	1.016949654E0	9.722038269E0	9.775250004E0
1.812207047E0	4.307080805E-2	1.016949654E0	9.707681656E0	9.760897747E0
1.813402933E0	3.828516230E-2	1.019342422E0	9.690931320E0	9.744468922E0
1.814598818E0	3.110669367E-2	1.019342422E0	9.678967476E0	9.732545299E0
1.815794651E0	1.196411345E-2	1.016949654E0	9.676574707E0	9.729872959E0
1.816990537E0	-2.392822644E-3	1.014556766E0	9.667003632E0	9.720097241E0
1.818186422E0	-1.435693540E-2	1.016949654E0	9.643074989E0	9.696560626E0
1.819382255E0	-2.153540403E-2	1.019342422E0	9.621540070E0	9.675409865E0
1.820578141E0	-2.871387079E-2	1.019342422E0	9.595218658E0	9.649254094E0
1.821774026E0	-3.589234129E-2	1.021735311E0	9.568898201E0	9.623359293E0
1.822969912E0	-4.546362907E-2	1.028913736E0	9.547362328E0	9.602752617E0
1.824165745E0	-5.742774159E-2	1.031306505E0	9.528220177E0	9.584042508E0
1.825361630E0	-7.657032460E-2	1.026520967E0	9.521040916E0	9.576524863E0
1.826557516E0	-9.092725813E-2	1.033699393E0	9.521040916E0	9.577422531E0
1.827753349E0	-8.614161611E-2	1.038485050E0	9.513862610E0	9.570760332E0
1.828949235E0	-8.853443712E-2	1.040877819E0	9.516255379E0	9.573420570E0
1.830145120E0	-1.028913707E-1	1.040877819E0	9.516255379E0	9.573564107E0
1.831340953E0	-1.076770201E-1	1.040877819E0	9.513862610E0	9.571238307E0
1.832536839E0	-1.100698411E-1	1.038485050E0	9.516255379E0	9.573384094E0
1.833732724E0	-1.124626622E-1	1.028913736E0	9.516255379E0	9.572378375E0
1.834928558E0	-1.004985496E-1	1.026520967E0	9.516255379E0	9.571988387E0
1.836124443E0	-8.374879509E-2	1.031306505E0	9.523433685E0	9.579477863E0
1.837320328E0	-8.614161611E-2	1.036092162E0	9.530612946E0	9.587152365E0
1.838516162E0	-8.614161611E-2	1.045663476E0	9.535398483E0	9.592948281E0
1.839712047E0	-7.657032460E-2	1.052842021E0	9.547362328E0	9.605543543E0
1.840907933E0	-6.699903309E-2	1.052842021E0	9.552147865E0	9.610228615E0
1.842103766E0	-5.982056633E-2	1.052842021E0	9.559326172E0	9.617316241E0
1.843299651E0	-5.503492057E-2	1.052842021E0	9.573683739E0	9.631558830E0
1.844495537E0	-5.024927482E-2	1.043270707E0	9.588040352E0	9.644763167E0
1.845691422E0	-4.546362907E-2	1.031306505E0	9.602396965E0	9.657726830E0
1.846887255E0	-4.067798331E-2	1.028913736E0	9.623932838E0	9.678863645E0
1.848083141E0	-4.067798331E-2	1.026520967E0	9.643074989E0	9.697643799E0
1.849279026E0	-4.067798331E-2	1.016949654E0	9.664610863E0	9.718052502E0
1.850474860E0	-1.435693540E-2	1.004985452E0	9.700503349E0	9.752433907E0
1.851670745E0	1.914258115E-2	1.004985452E0	9.731609344E0	9.783382985E0
1.852866630E0	5.024927482E-2	1.004985452E0	9.760323524E0	9.812055649E0
1.854062464E0	7.417750359E-2	9.954141974E-1	9.793823242E0	9.844558163E0
1.855258349E0	8.853443712E-2	9.906286001E-1	9.829715729E0	9.879903576E0
1.856454235E0	1.028913707E-1	9.906286001E-1	9.858428955E0	9.908610050E0
1.857650068E0	1.124626622E-1	9.714859724E-1	9.879964828E0	9.928249486E0
1.858845953E0	1.172483116E-1	9.475577474E-1	9.896714211E0	9.942663879E0
1.860041839E0	1.268195957E-1	9.427721500E-1	9.908679008E0	9.954236396E0
1.861237724E0	1.363908947E-1	9.643075466E-1	9.918250084E0	9.965950845E0
1.862433558E0	1.435693651E-1	9.786644578E-1	9.923035622E0	9.972213006E0
1.863629443E0	1.555334777E-1	9.738788009E-1	9.934999466E0	9.983829174E0
1.864825328E0	1.651047617E-1	9.595218897E-1	9.951749802E0	9.999263271E0
1.866021162E0	1.770688742E-1	9.451649189E-1	9.961320877E0	1.000762728E1
1.867217047E0	1.890329868E-1	9.475577474E-1	9.970891953E0	1.001759879E1
1.868412933E0	1.986042857E-1	9.451649189E-1	9.980463028E0	1.002708445E1
1.869608766E0	2.105683982E-1	9.451649189E-1	9.994820595E0	1.004161912E1
1.870804651E0	2.129612118E-1	9.499505758E-1	1.000917721E1	1.005641024E1
1.872000537E0	2.129612118E-1	9.547362328E-1	1.001396275E1	1.006162629E1
1.873196370E0	2.177468538E-1	9.667003751E-1	1.002114105E1	1.007001446E1
1.874392255E0	2.249253243E-1	9.810572863E-1	1.003310490E1	1.008346462E1
1.875588141E0	2.368894368E-1	9.906286001E-1	1.003789139E1	1.008943631E1
1.876783974E0	2.273181528E-1	9.882357717E-1	1.003071213E1	1.008183859E1
1.877979860E0	2.201396823E-1	9.786644578E-1	1.002592659E1	1.007598380E1
1.879175745E0	2.273181528E-1	9.738788009E-1	1.002114105E1	1.007091761E1
1.880371630E0	2.273181528E-1	9.690931439E-1	1.000678444E1	1.005616974E1
1.881567464E0	2.273181528E-1	9.810572863E-1	9.982855797E0	1.003352166E1
1.882763349E0	2.368894368E-1	9.930213690E-1	9.963713646E0	1.001587728E1
1.883959235E0	2.440679073E-1	9.906286001E-1	9.946963310E0	9.999149627E0
1.885155068E0	2.560320199E-1	9.858429432E-1	9.939785004E0	9.991834898E0
1.886350953E0	2.608176768E-1	9.786644578E-1	9.942177773E0	9.993633415E0
1.887546839E0	2.512463629E-1	9.858429432E-1	9.939785004E0	9.991713415E0
1.888742672E0	2.560320199E-1	9.930213690E-1	9.925428391E0	9.978265008E0
1.889938558E0	2.440679073E-1	9.954141974E-1	9.913464546E0	9.966303120E0
1.891134443E0	2.392822653E-1	1.000199914E0	9.911071777E0	9.964286209E0
1.892330276E0	2.560320199E-1	1.007378340E0	9.915857315E0	9.970185044E0
1.893526162E0	2.536391914E-1	1.007378340E0	9.920642853E0	9.974883386E0
1.894722047E0	2.344966233E-1	1.007378340E0	9.927821159E0	9.981554626E0
1.895917880E0	2.225325108E-1	1.019342422E0	9.930213928E0	9.984874979E0
1.897113766E0	2.129612118E-1	1.038485050E0	9.932606697E0	9.989017944E0
1.898309651E0	2.057827413E-1	1.045663476E0	9.934999466E0	9.991995448E0
1.899505485E0	2.057827413E-1	1.043270707E0	9.937392235E0	9.994124511E0
1.900701370E0	2.129612118E-1	1.050449133E0	9.946963310E0	1.000454272E1
1.901897255E0	2.153540403E-1	1.057627559E0	9.951749802E0	1.001010877E1
1.903093141E0	2.057827413E-1	1.050449133E0	9.942177773E0	9.999634432E0
1.904288974E0	1.842473447E-1	1.038485050E0	9.937392235E0	9.993205828E0
1.905484860E0	1.698904037E-1	1.031306505E0	9.939785004E0	9.994587624E0
1.906680745E0	1.770688742E-1	1.026520967E0	9.937392235E0	9.991839826E0
1.907876578E0	1.770688742E-1	1.021735311E0	9.944570541E0	9.998488870E0
1.909072464E0	1.603191197E-1	1.019342422E0	9.954142570E0	1.000748298E1
1.910268349E0	1.339980662E-1	1.021735311E0	9.963713646E0	1.001686019E1
1.911464183E0	1.196411327E-1	1.024128079E0	9.968499184E0	1.002168291E1
1.912660068E0	1.076770201E-1	1.026520967E0	9.975677490E0	1.002893220E1
1.913855953E0	9.332008660E-2	1.038485050E0	9.985248566E0	1.003953927E1
1.915051787E0	7.657032460E-2	1.043270707E0	9.987641335E0	1.004227346E1
1.916247672E0	4.785645381E-2	1.036092162E0	9.994820595E0	1.004849322E1
1.917443558E0	3.349951655E-2	1.033699393E0	1.000199890E1	1.005532887E1
1.918639391E0	3.110669367E-2	1.033699393E0	1.001635551E1	1.006960177E1
1.919835276E0	2.153540403E-2	1.033699393E0	1.003071213E1	1.008385760E1
1.921031162E0	1.435693540E-2	1.028913736E0	1.003549862E1	1.008811688E1
1.922227047E0	-4.785645287E-3	1.024128079E0	1.004028416E1	1.009238164E1
1.923422880E0	-2.153540403E-2	1.019342422E0	1.004746246E1	1.009906059E1
1.924618766E0	-2.871387079E-2	1.019342422E0	1.005224800E1	1.010383953E1
1.925814651E0	-4.067798331E-2	1.014556766E0	1.006181908E1	1.011292160E1
1.927010485E0	-5.024927482E-2	1.012163997E0	1.006421185E1	1.011510559E1
1.928206370E0	-5.503492057E-2	1.007378340E0	1.006660461E1	1.011703358E1
1.929402255E0	-5.982056633E-2	1.007378340E0	1.007856941E1	1.012896594E1
1.930598089E0	-6.460621208E-2	1.016949654E0	1.007378292E1	1.012518952E1
1.931793974E0	-6.939185411E-2	1.014556766E0	1.006660461E1	1.011783915E1
1.932989860E0	-7.178468257E-2	1.007378340E0	1.006660461E1	1.011713856E1
1.934185693E0	-6.460621208E-2	1.004985452E0	1.007139015E1	1.012161397E1
1.935381578E0	-6.221338734E-2	1.012163997E0	1.007617569E1	1.012707574E1
1.936577464E0	-6.699903309E-2	1.012163997E0	1.007139015E1	1.012234481E1
1.937773349E0	-6.460621208E-2	1.002592683E0	1.004985523E1	1.009994833E1
1.938969183E0	-6.221338734E-2	9.930213690E-1	1.003071213E1	1.007993788E1
1.940165068E0	-6.221338734E-2	9.762716293E-1	1.001874828E1	1.006639429E1
1.941360953E0	-4.546362907E-2	9.667003751E-1	1.000678444E1	1.005347260E1
1.942556787E0	-2.392822690E-2	9.738788009E-1	9.997213364E0	1.004456507E1
1.943752672E0	-2.632104978E-2	9.786644578E-1	9.990034103E0	1.003789113E1
1.944948558E0	-3.589234129E-2	9.738788009E-1	9.968499184E0	1.001602237E1
1.946144391E0	-2.871387079E-2	9.738788009E-1	9.942177773E0	9.989802964E0
1.947340276E0	-2.153540403E-2	9.810572863E-1	9.915857315E0	9.964294429E0
1.948536162E0	-1.435693540E-2	9.738788009E-1	9.891928673E0	9.939763524E0
1.949731995E0	-2.392822644E-3	9.690931439E-1	9.879964828E0	9.927378922E0
1.950927880E0	-4.785645287E-3	9.858429432E-1	9.870393753E0	9.919505131E0
1.952123766E0	-7.178467698E-3	1.002592683E0	9.856036186E0	9.906901277E0
1.953319599E0	-2.392822644E-3	1.002592683E0	9.841679573E0	9.892616167E0
1.954515485E0	-2.392822644E-3	1.012163997E0	9.832108498E0	9.884069971E0
1.955711370E0	-7.178467698E-3	1.021735311E0	9.824930191E0	9.877917181E0
1.956907203E0	-9.571290575E-3	1.021735311E0	9.820143700E0	9.873158407E0
1.958103089E0	-7.178467698E-3	1.028913736E0	9.805787086E0	9.859623491E0
1.959298974E0	-1.674975827E-2	1.040877819E0	9.784252167E0	9.839476493E0
1.960494808E0	-3.349951655E-2	1.055234790E0	9.767501831E0	9.824394877E0
1.961690693E0	-5.982056633E-2	1.069591761E0	9.753145218E0	9.811801398E0
1.962886578E0	-7.896314561E-2	1.083948612E0	9.731609344E0	9.792109079E0
1.964082412E0	-9.092725813E-2	1.095912814E0	9.700503349E0	9.762635807E0
1.965278297E0	-8.853443712E-2	1.098305583E0	9.676574707E0	9.739107329E0
1.966474183E0	-8.374879509E-2	1.098305583E0	9.662218094E0	9.724800641E0
1.967670068E0	-9.092725813E-2	1.091127157E0	9.650253296E0	9.712168394E0
1.968865901E0	-9.810572863E-2	1.088734269E0	9.645467758E0	9.707214601E0
1.970061787E0	-1.100698411E-1	1.083948612E0	9.640682220E0	9.702052032E0
1.971257672E0	-1.196411327E-1	1.071984529E0	9.635896683E0	9.696080121E0
1.972453505E0	-1.268195957E-1	1.067198873E0	9.635896683E0	9.695643430E0
1.973649391E0	-1.435693651E-1	1.069591761E0	9.638289452E0	9.698518560E0
1.974845276E0	-1.603191197E-1	1.060020447E0	9.633503914E0	9.692973910E0
1.976041110E0	-1.674975902E-1	1.050449133E0	9.616754532E0	9.675405240E0
1.977236995E0	-1.627119333E-1	1.045663476E0	9.600004196E0	9.658155509E0
1.978432880E0	-1.555334777E-1	1.038485050E0	9.592825890E0	9.650126963E0
1.979628714E0	-1.627119333E-1	1.036092162E0	9.588040352E0	9.645230942E0
1.980824599E0	-1.722832322E-1	1.033699393E0	9.580862045E0	9.638004642E0
1.982020485E0	-1.770688742E-1	1.024128079E0	9.573683739E0	9.629933127E0
1.983216318E0	-1.914258152E-1	1.002592683E0	9.573683739E0	9.627941434E0
1.984412203E0	-2.033899277E-1	9.786644578E-1	9.588040352E0	9.640003598E0
1.985608089E0	-2.081755698E-1	9.738788009E-1	9.604789734E0	9.656281004E0
1.986803974E0	-2.153540403E-1	9.762716293E-1	9.621540070E0	9.673340528E0
1.987999755E0	-2.225325108E-1	9.690931439E-1	9.640682220E0	9.691822115E0
1.989195693E0	-2.416750938E-1	9.571290612E-1	9.664610863E0	9.714896089E0
1.990391578E0	-2.608176768E-1	9.523434043E-1	9.690931320E0	9.741105362E0
1.991587412E0	-2.727817893E-1	9.427721500E-1	9.729216576E0	9.778593171E0
1.992783297E0	-2.823530734E-1	9.451649189E-1	9.781859398E0	9.831471572E0
1.993979183E0	-2.847459018E-1	9.547362328E-1	9.822537422E0	9.872934868E0
1.995175016E0	-2.799602449E-1	9.499505758E-1	9.848857880E0	9.898524404E0
1.996370901E0	-2.799602449E-1	9.523434043E-1	9.882357597E0	9.932085752E0
1.997566787E0	-2.847459018E-1	9.451649189E-1	9.913464546E0	9.962489461E0
1.998762620E0	-2.967100143E-1	9.284151793E-1	9.937392235E0	9.985076665E0
1.999958505E0	-3.038884699E-1	9.212366939E-1	9.966106415E0	1.001320640E1
2.001154391E0	-2.967100143E-1	9.164510965E-1	9.982855797E0	1.002922376E1
2.002350224E0	-2.919243574E-1	9.044869542E-1	9.999606133E0	1.004467218E1
2.003546110E0	-2.919243574E-1	8.925228715E-1	1.001635551E1	1.006027806E1
2.004741995E0	-2.895315289E-1	8.733802438E-1	1.003310490E1	1.007520796E1
2.005937880E0	-2.751746178E-1	8.590233326E-1	1.005224800E1	1.009263752E1
2.007133714E0	-2.632105052E-1	8.590233326E-1	1.006421185E1	1.010423480E1
2.008329599E0	-2.632105052E-1	8.614161611E-1	1.007617569E1	1.011635478E1
2.009525485E0	-2.608176768E-1	8.590233326E-1	1.008335495E1	1.012324029E1
2.010721318E0	-2.608176768E-1	8.470591903E-1	1.009053326E1	1.012938283E1
2.011917203E0	-2.656033039E-1	8.470591903E-1	1.009292603E1	1.013189075E1
2.013113089E0	-2.560320199E-1	8.590233326E-1	1.009771156E1	1.013741842E1
