"Time (s)"	"Acceleration x (m/s^2)"	"Acceleration y (m/s^2)"	"Acceleration z (m/s^2)"	"Absolute acceleration (m/s^2)"
3,243810000E-2	3,110669553E-1	-9,332008660E-2	1,025085258E1	1,025599581E1
3,363408900E-2	3,206382394E-1	-9,332008660E-2	1,025563812E1	1,026107357E1
3,483028700E-2	3,182454109E-1	-1,004985496E-1	1,025563812E1	1,026106687E1
3,602632900E-2	3,014956415E-1	-1,052841991E-1	1,024606609E1	1,025104164E1
3,722226600E-2	2,751746178E-1	-1,100698411E-1	1,023170948E1	1,023600094E1
3,841820400E-2	2,584248483E-1	-1,124626622E-1	1,021735287E1	1,022123920E1
3,961440200E-2	2,560320199E-1	-1,052841991E-1	1,020299530E1	1,020675023E1
4,081044400E-2	2,536391914E-1	-1,028913707E-1	1,017188931E1	1,017557131E1
4,200643300E-2	2,536391914E-1	-1,052841991E-1	1,013599682E1	1,013971642E1
4,320242300E-2	2,488535494E-1	-1,244267747E-1	1,010488987E1	1,010871947E1
4,439856900E-2	2,368894368E-1	-1,459621787E-1	1,007856941E1	1,008240958E1
4,559461000E-2	2,273181528E-1	-1,483550072E-1	1,004506969E1	1,004873663E1
4,679060000E-2	2,249253243E-1	-1,507478207E-1	1,000678444E1	1,001044710E1
4,798658900E-2	2,201396823E-1	-1,674975902E-1	9,966106415E0	9,969944533E0
4,918273500E-2	2,249253243E-1	-1,698904037E-1	9,915857315E0	9,919862925E0
5,037877700E-2	2,297109663E-1	-1,674975902E-1	9,870393753E0	9,874487096E0
5,157476600E-2	2,297109663E-1	-1,651047617E-1	9,829715729E0	9,833785539E0
5,277075600E-2	2,321037948E-1	-1,507478207E-1	9,789037704E0	9,792949313E0
5,396690200E-2	2,321037948E-1	-1,363908947E-1	9,757930756E0	9,761643677E0
5,516294400E-2	2,368894368E-1	-1,244267747E-1	9,736394882E0	9,740071043E0
5,635893300E-2	2,201396823E-1	-1,124626622E-1	9,719645500E0	9,722788591E0
5,755492300E-2	2,009970993E-1	-1,004985496E-1	9,710074425E0	9,712674458E0
5,875106900E-2	1,914258152E-1	-7,896314561E-2	9,705288887E0	9,707497690E0
5,994711000E-2	1,746760458E-1	-6,460621208E-2	9,698110580E0	9,699898686E0
6,114310000E-2	1,627119333E-1	-5,982056633E-2	9,686145782E0	9,687697032E0
6,233908900E-2	1,555334777E-1	-6,460621208E-2	9,681360245E0	9,682825043E0
6,353523500E-2	1,387837082E-1	-7,178468257E-2	9,693324089E0	9,694583325E0
6,473127700E-2	1,292124242E-1	-5,982056633E-2	9,707681656E0	9,708725842E0
6,592726600E-2	1,124626622E-1	-4,067798331E-2	9,714859962E0	9,715596052E0
6,712325600E-2	1,004985496E-1	-2,392822690E-2	9,729216576E0	9,729765038E0
6,831940200E-2	1,052841991E-1	-1,435693540E-2	9,750752449E0	9,751331407E0
6,951544400E-2	1,076770201E-1	-1,435693540E-2	9,765109062E0	9,765713259E0
7,071148500E-2	1,124626622E-1	-9,571290575E-3	9,777072906E0	9,777724381E0
7,190747500E-2	1,268195957E-1	-2,392822644E-3	9,791430473E0	9,792252021E0
7,310346400E-2	1,435693651E-1	9,571290575E-3	9,805787086E0	9,806842721E0
7,429961000E-2	1,627119333E-1	1,674975827E-2	9,822537422E0	9,823899284E0
7,549565200E-2	1,794617027E-1	1,674975827E-2	9,836894035E0	9,838545183E0
7,669169400E-2	2,009970993E-1	3,110669367E-2	9,848857880E0	9,850957770E0
7,788768300E-2	2,297109663E-1	4,067798331E-2	9,860821724E0	9,863580835E0
7,908367300E-2	2,488535494E-1	3,110669367E-2	9,870393753E0	9,873579318E0
8,027981900E-2	2,656033039E-1	3,349951655E-2	9,879964828E0	9,883591065E0
8,147586000E-2	2,799602449E-1	4,067798331E-2	9,891928673E0	9,895973186E0
8,267190200E-2	2,823530734E-1	4,307080805E-2	9,894321442E0	9,898443067E0
8,386789100E-2	2,727817893E-1	4,785645381E-2	9,891928673E0	9,895804819E0
8,506388100E-2	2,608176768E-1	5,264209956E-2	9,896714211E0	9,900290360E0
8,626002700E-2	2,488535494E-1	6,221338734E-2	9,903892517E0	9,907213815E0
8,745606900E-2	2,440679073E-1	6,460621208E-2	9,906285286E0	9,909502070E0
8,865205800E-2	2,392822653E-1	5,264209956E-2	9,906285286E0	9,909314576E0
8,984804800E-2	2,321037948E-1	4,067798331E-2	9,915857315E0	9,918656823E0
9,104419400E-2	2,416750938E-1	3,110669367E-2	9,920642853E0	9,923634873E0
9,224023500E-2	2,368894368E-1	2,392822690E-2	9,932606697E0	9,935459977E0
9,343622500E-2	2,225325108E-1	2,392822690E-2	9,951749802E0	9,954266291E0
9,463221400E-2	2,129612118E-1	1,435693540E-2	9,958928108E0	9,961215170E0
9,582836000E-2	1,986042857E-1	2,392822644E-3	9,963713646E0	9,965693102E0
9,702440200E-2	1,890329868E-1	-4,785645287E-3	9,973284721E0	9,975077168E0
9,822039100E-2	1,914258152E-1	-9,571290575E-3	9,975677490E0	9,977518571E0
9,941638100E-2	1,890329868E-1	0,000000000E0	9,982855797E0	9,984645378E0
1,006125270E-1	1,770688742E-1	7,178467698E-3	9,992427826E0	9,993999138E0
1,018085690E-1	1,627119333E-1	1,435693540E-2	9,994820595E0	9,996155262E0
1,030045580E-1	1,627119333E-1	1,914258115E-2	9,987641335E0	9,988984985E0
1,042005480E-1	1,674975902E-1	1,674975827E-2	9,973284721E0	9,974705215E0
1,053966940E-1	1,603191197E-1	7,178467698E-3	9,975677490E0	9,976968234E0
1,065927350E-1	1,555334777E-1	7,178467698E-3	9,980463028E0	9,981677436E0
1,077887250E-1	1,507478207E-1	1,674975827E-2	9,987641335E0	9,988792964E0
1,089847140E-1	1,507478207E-1	1,674975827E-2	9,994820595E0	9,995971398E0
1,101808600E-1	1,579262912E-1	1,196411345E-2	9,987641335E0	9,988897000E0
1,113769020E-1	1,722832322E-1	4,785645287E-3	9,985248566E0	9,986735870E0
1,125729440E-1	1,794617027E-1	-1,196411345E-2	9,985248566E0	9,986868306E0
1,137689330E-1	1,962114573E-1	-2,392822690E-2	9,973284721E0	9,975243337E0
1,149649230E-1	2,105683982E-1	-2,153540403E-2	9,958928108E0	9,961177234E0
1,161610690E-1	2,129612118E-1	-1,674975827E-2	9,946963310E0	9,949256863E0
1,173571100E-1	2,177468538E-1	-1,435693540E-2	9,946963310E0	9,949356708E0
1,185531520E-1	2,177468538E-1	-1,914258115E-2	9,944570541E0	9,946972574E0
1,197491410E-1	2,105683982E-1	-1,435693540E-2	9,937392235E0	9,939633273E0
1,209451310E-1	2,153540403E-1	-4,785645287E-3	9,932606697E0	9,934942177E0
1,221412770E-1	2,201396823E-1	-1,914258115E-2	9,930213928E0	9,932672177E0
1,233373190E-1	2,201396823E-1	-3,828516230E-2	9,930213928E0	9,932727515E0
1,245333600E-1	2,249253243E-1	-4,546362907E-2	9,937392235E0	9,940041387E0
1,257294020E-1	2,249253243E-1	-5,742774159E-2	9,939785004E0	9,942495424E0
1,269253910E-1	2,249253243E-1	-7,896314561E-2	9,934999466E0	9,937858973E0
1,281213810E-1	2,440679073E-1	-9,092725813E-2	9,934999466E0	9,938412916E0
1,293175270E-1	2,632105052E-1	-9,332008660E-2	9,925428391E0	9,929356331E0
1,305135690E-1	2,608176768E-1	-9,810572863E-2	9,920642853E0	9,924555668E0
1,317095580E-1	2,560320199E-1	-9,571290761E-2	9,923035622E0	9,926799550E0
1,329055480E-1	2,560320199E-1	-1,004985496E-1	9,915857315E0	9,919671297E0
1,341016940E-1	2,488535494E-1	-1,100698411E-1	9,903892517E0	9,907629911E0
1,352977350E-1	2,464607358E-1	-1,052841991E-1	9,882357597E0	9,885991065E0
1,364937250E-1	2,560320199E-1	-1,004985496E-1	9,865608215E0	9,869441616E0
1,376897140E-1	2,632105052E-1	-9,332008660E-2	9,856036186E0	9,859991770E0
1,388858600E-1	2,679961324E-1	-8,374879509E-2	9,836894035E0	9,840900368E0
1,400819020E-1	2,560320199E-1	-7,417750359E-2	9,822537422E0	9,826153678E0
1,412778910E-1	2,488535494E-1	-6,221338734E-2	9,824930191E0	9,828278173E0
1,424738810E-1	2,536391914E-1	-5,264209956E-2	9,820143700E0	9,823559758E0
1,436700270E-1	2,440679073E-1	-3,110669367E-2	9,815358162E0	9,818441456E0
1,448660690E-1	2,321037948E-1	-7,178467698E-3	9,808179855E0	9,810928385E0
1,460620580E-1	2,273181528E-1	7,178467698E-3	9,789037704E0	9,791679338E0
1,472580480E-1	2,153540403E-1	2,632104978E-2	9,774680138E0	9,777087601E0
1,484541940E-1	2,009970993E-1	5,264209956E-2	9,765109062E0	9,767319285E0
1,496502350E-1	1,890329868E-1	7,417750359E-2	9,750752449E0	9,752866712E0
1,508462770E-1	1,651047617E-1	9,810572863E-2	9,734002113E0	9,735896541E0
1,520422660E-1	1,507478207E-1	1,004985496E-1	9,717252731E0	9,718941584E0
1,532382560E-1	1,387837082E-1	1,052841991E-1	9,702896118E0	9,704459736E0
1,544344020E-1	1,339980662E-1	1,196411327E-1	9,695717812E0	9,697381779E0
1,556304440E-1	1,244267747E-1	1,268195957E-1	9,698110580E0	9,699737835E0
1,568264850E-1	1,100698411E-1	1,363908947E-1	9,700503349E0	9,702086532E0
1,580224750E-1	1,100698411E-1	1,483550072E-1	9,710074425E0	9,711831440E0
1,592184640E-1	1,100698411E-1	1,579262912E-1	9,722038269E0	9,723943860E0
1,604146100E-1	1,148554832E-1	1,579262912E-1	9,729216576E0	9,731176068E0
1,616106520E-1	1,244267747E-1	1,339980662E-1	9,734002113E0	9,735719524E0
1,628066940E-1	1,292124242E-1	1,196411327E-1	9,729216576E0	9,730810091E0
1,640026830E-1	1,268195957E-1	1,268195957E-1	9,719645500E0	9,721300071E0
1,651986730E-1	1,172483116E-1	1,292124242E-1	9,705288887E0	9,706857133E0
1,663948190E-1	1,196411327E-1	1,148554832E-1	9,700503349E0	9,701920996E0
1,675908600E-1	1,244267747E-1	1,076770201E-1	9,695717812E0	9,697114016E0
1,687868500E-1	1,124626622E-1	1,052841991E-1	9,688538551E0	9,689763252E0
1,699828390E-1	1,076770201E-1	8,853443712E-2	9,702896118E0	9,703897452E0
1,711789850E-1	1,076770201E-1	6,221338734E-2	9,722038269E0	9,722833587E0
1,723750270E-1	1,028913707E-1	3,589234129E-2	9,731609344E0	9,732219445E0
1,735710160E-1	8,614161611E-2	1,435693540E-2	9,741181374E0	9,741572822E0
1,747670060E-1	6,939185411E-2	0,000000000E0	9,762716293E0	9,762962903E0
1,759631520E-1	6,939185411E-2	-1,196411345E-2	9,784252167E0	9,784505549E0
1,771591940E-1	6,699903309E-2	-2,392822690E-2	9,798608780E0	9,798867049E0
1,783551830E-1	6,221338734E-2	-4,067798331E-2	9,817750931E0	9,818032315E0
1,795511730E-1	5,264209956E-2	-5,264209956E-2	9,836894035E0	9,837175745E0
1,807473190E-1	4,067798331E-2	-5,982056633E-2	9,848857880E0	9,849123551E0
1,819433600E-1	3,589234129E-2	-6,460621208E-2	9,860821724E0	9,861098686E0
1,831393500E-1	4,067798331E-2	-8,135596663E-2	9,865608215E0	9,866027516E0
1,843353390E-1	4,546362907E-2	-1,100698411E-1	9,868000984E0	9,868719559E0
1,855314850E-1	4,067798331E-2	-1,220339537E-1	9,868000984E0	9,868839365E0
1,867275270E-1	4,067798331E-2	-1,268195957E-1	9,868000984E0	9,868899702E0
1,879235690E-1	5,503492057E-2	-1,435693651E-1	9,858428955E0	9,859627907E0
1,891196100E-1	6,699903309E-2	-1,651047617E-1	9,846465111E0	9,848077154E0
1,903156520E-1	6,939185411E-2	-1,794617027E-1	9,841679573E0	9,843560258E0
1,915116940E-1	7,896314561E-2	-1,794617027E-1	9,841679573E0	9,843632383E0
1,927077350E-1	8,374879509E-2	-1,818545163E-1	9,841679573E0	9,843715850E0
1,939037770E-1	8,135596663E-2	-1,938186288E-1	9,834501266E0	9,836747410E0
1,950997660E-1	9,810572863E-2	-2,057827413E-1	9,829715729E0	9,832358953E0
1,962957560E-1	1,148554832E-1	-2,153540403E-1	9,827322960E0	9,830353285E0
1,974918500E-1	1,076770201E-1	-2,177468538E-1	9,820143700E0	9,823147679E0
1,986879440E-1	1,004985496E-1	-2,201396823E-1	9,827322960E0	9,830302030E0
1,998839850E-1	1,052841991E-1	-2,201396823E-1	9,836894035E0	9,839920249E0
2,010800270E-1	1,100698411E-1	-2,201396823E-1	9,841679573E0	9,844756659E0
2,022760690E-1	1,172483116E-1	-2,249253243E-1	9,841679573E0	9,844947709E0
2,034721100E-1	1,172483116E-1	-2,321037948E-1	9,829715729E0	9,833154664E0
2,046681520E-1	1,124626622E-1	-2,297109663E-1	9,822537422E0	9,825866699E0
2,058641940E-1	1,172483116E-1	-2,177468538E-1	9,824930191E0	9,828042232E0
2,070601830E-1	1,172483116E-1	-2,033899277E-1	9,817750931E0	9,820557416E0
2,082561730E-1	1,052841991E-1	-1,866401732E-1	9,817750931E0	9,820089239E0
2,094762770E-1	1,004985496E-1	-1,387837082E-1	9,803394318E0	9,804891688E0
2,106961730E-1	1,004985496E-1	-1,172483116E-1	9,789037704E0	9,790255681E0
2,119161210E-1	1,028913707E-1	-9,810572863E-2	9,779465675E0	9,780498978E0
2,131361210E-1	9,810572863E-2	-6,460621208E-2	9,765109062E0	9,765815567E0
2,143560160E-1	9,810572863E-2	-3,828516230E-2	9,745966911E0	9,746535873E0
2,155759640E-1	1,052841991E-1	-1,435693540E-2	9,726823807E0	9,727404189E0
2,167959120E-1	1,004985496E-1	1,914258115E-2	9,700503349E0	9,701042811E0
2,180159120E-1	9,092725813E-2	4,785645381E-2	9,676574707E0	9,677120236E0
2,192359120E-1	8,853443712E-2	6,939185411E-2	9,657432556E0	9,658087655E0
2,204559120E-1	9,332008660E-2	7,896314561E-2	9,628718376E0	9,629494347E0
2,216758080E-1	9,092725813E-2	9,332008660E-2	9,607182503E0	9,608065989E0
2,228957560E-1	9,332008660E-2	1,196411327E-1	9,597611427E0	9,598810747E0
2,241157040E-1	8,853443712E-2	1,411765367E-1	9,583254814E0	9,584703542E0
2,253356520E-1	8,135596663E-2	1,483550072E-1	9,571290970E0	9,572786367E0
2,265556000E-1	8,374879509E-2	1,483550072E-1	9,564111710E0	9,565628880E0
2,277756000E-1	8,614161611E-2	1,483550072E-1	9,559326172E0	9,560865361E0
2,289956000E-1	9,571290761E-2	1,579262912E-1	9,554540634E0	9,556325047E0
2,302156000E-1	1,100698411E-1	1,627119333E-1	9,542576790E0	9,544598595E0
2,314355480E-1	1,244267747E-1	1,698904037E-1	9,533005714E0	9,535331285E0
2,326554960E-1	1,459621787E-1	1,674975902E-1	9,528220177E0	9,530810046E0
2,338754440E-1	1,627119333E-1	1,603191197E-1	9,523433685E0	9,526172713E0
2,350953910E-1	1,842473447E-1	1,555334777E-1	9,521040916E0	9,524093546E0
2,363153390E-1	2,105683982E-1	1,459621787E-1	9,535398483E0	9,538839984E0
2,375352870E-1	2,225325108E-1	1,387837082E-1	9,552147865E0	9,555747510E0
2,387552350E-1	2,416750938E-1	1,292124242E-1	9,556933403E0	9,560861822E0
2,399751830E-1	2,632105052E-1	1,220339537E-1	9,556933403E0	9,561336106E0
2,411951310E-1	2,871387303E-1	1,196411327E-1	9,566504478E0	9,571560510E0
2,424150790E-1	3,110669553E-1	1,076770201E-1	9,578469276E0	9,584123886E0
2,436350790E-1	3,134597540E-1	9,571290761E-2	9,585647583E0	9,591249010E0
2,448550790E-1	3,254238665E-1	9,092725813E-2	9,604789734E0	9,610731205E0
2,460750790E-1	3,278166950E-1	8,374879509E-2	9,626325607E0	9,632269844E0
2,472950270E-1	3,110669553E-1	7,178468257E-2	9,645467758E0	9,650749399E0
2,485149750E-1	3,086741269E-1	5,742774159E-2	9,662218094E0	9,667317940E0
2,497349230E-1	2,847459018E-1	3,589234129E-2	9,683753014E0	9,688005002E0
2,509548710E-1	2,512463629E-1	2,632104978E-2	9,714859962E0	9,718143939E0
2,521748190E-1	2,273181528E-1	1,674975827E-2	9,748359680E0	9,751024077E0
2,533947660E-1	2,057827413E-1	7,178467698E-3	9,793823242E0	9,795987534E0
2,546147140E-1	1,890329868E-1	2,392822644E-3	9,832108498E0	9,833925803E0
2,558347140E-1	1,698904037E-1	0,000000000E0	9,860821724E0	9,862285122E0
2,570547140E-1	1,435693651E-1	-1,914258115E-2	9,889535904E0	9,890596493E0
2,582747140E-1	1,268195957E-1	-4,546362907E-2	9,918250084E0	9,919165029E0
2,594946620E-1	1,220339537E-1	-7,417750359E-2	9,939785004E0	9,940810858E0
2,607146100E-1	1,244267747E-1	-1,124626622E-1	9,963713646E0	9,965125162E0
2,619345580E-1	1,220339537E-1	-1,435693651E-1	9,987641335E0	9,989418595E0
2,631545060E-1	1,124626622E-1	-1,603191197E-1	1,000678444E1	1,000870046E1
2,643745060E-1	9,810572863E-2	-1,674975902E-1	1,001635551E1	1,001823627E1
2,655945060E-1	9,332008660E-2	-1,674975902E-1	1,001874828E1	1,002058288E1
2,668145060E-1	1,076770201E-1	-1,674975902E-1	1,003071213E1	1,003268835E1
2,680344540E-1	1,220339537E-1	-1,794617027E-1	1,003310490E1	1,003545179E1
2,692543500E-1	1,244267747E-1	-1,842473447E-1	1,002114105E1	1,002360699E1
2,704503910E-1	1,244267747E-1	-1,914258152E-1	1,001874828E1	1,002134936E1
2,716464330E-1	1,292124242E-1	-2,105683982E-1	1,001156998E1	1,001461773E1
2,728424750E-1	1,268195957E-1	-2,201396823E-1	9,992427826E0	9,995656984E0
2,740385160E-1	1,124626622E-1	-2,225325108E-1	9,966106415E0	9,969224927E0
2,752345580E-1	1,100698411E-1	-2,201396823E-1	9,944570541E0	9,947615800E0
2,764306000E-1	1,124626622E-1	-2,081755698E-1	9,932606697E0	9,935424536E0
2,776266410E-1	1,028913707E-1	-1,962114573E-1	9,918250084E0	9,920724283E0
2,788226830E-1	9,332008660E-2	-1,746760458E-1	9,901499748E0	9,903480076E0
2,800187250E-1	8,614161611E-2	-1,483550072E-1	9,884750366E0	9,886238890E0
2,812147660E-1	8,135596663E-2	-1,196411327E-1	9,870393753E0	9,871454079E0
2,824107560E-1	7,657032460E-2	-9,092725813E-2	9,844072342E0	9,844790046E0
2,836067460E-1	7,896314561E-2	-6,699903309E-2	9,812965393E0	9,813511800E0
2,848028910E-1	8,135596663E-2	-5,024927482E-2	9,793823242E0	9,794290045E0
2,859989330E-1	8,853443712E-2	-2,392822690E-2	9,772287369E0	9,772717704E0
2,871949750E-1	9,092725813E-2	7,178467698E-3	9,748359680E0	9,748786373E0
2,883910160E-1	9,810572863E-2	3,349951655E-2	9,717252731E0	9,717805699E0
2,895870580E-1	1,052841991E-1	4,307080805E-2	9,683753014E0	9,684421113E0
2,907831000E-1	1,196411327E-1	4,546362907E-2	9,662218094E0	9,663065737E0
2,919791410E-1	1,363908947E-1	5,264209956E-2	9,647860527E0	9,648968153E0
2,931751830E-1	1,483550072E-1	5,982056633E-2	9,631111145E0	9,632439442E0
2,943712250E-1	1,603191197E-1	6,460621208E-2	9,611968994E0	9,613522982E0
2,955672660E-1	1,746760458E-1	6,939185411E-2	9,602396965E0	9,604236275E0
2,967633080E-1	1,866401732E-1	8,135596663E-2	9,592825890E0	9,594986289E0
2,979593500E-1	1,938186288E-1	8,853443712E-2	9,585647583E0	9,588015623E0
2,991553910E-1	2,105683982E-1	9,092725813E-2	9,578469276E0	9,581214980E0
3,003514330E-1	2,129612118E-1	9,092725813E-2	9,578469276E0	9,581267866E0
3,015474750E-1	2,153540403E-1	8,853443712E-2	9,580862045E0	9,583691003E0
3,027435160E-1	2,297109663E-1	8,614161611E-2	9,580862045E0	9,584002558E0
3,039395580E-1	2,201396823E-1	9,092725813E-2	9,583254814E0	9,586214168E0
3,051356000E-1	2,081755698E-1	9,092725813E-2	9,583254814E0	9,585946884E0
3,063316410E-1	2,105683982E-1	1,004985496E-1	9,590433121E0	9,593270894E0
3,075276830E-1	2,177468538E-1	1,076770201E-1	9,611968994E0	9,615038012E0
3,087237250E-1	2,249253243E-1	1,052841991E-1	9,635896683E0	9,639096485E0
3,099197660E-1	2,368894368E-1	1,076770201E-1	9,652647018E0	9,656153759E0
3,111158080E-1	2,368894368E-1	1,076770201E-1	9,667003632E0	9,670505166E0
3,123118500E-1	2,273181528E-1	1,076770201E-1	9,690931320E0	9,694195054E0
3,135078910E-1	2,153540403E-1	1,052841991E-1	9,719645500E0	9,722601029E0
3,147039330E-1	2,081755698E-1	1,076770201E-1	9,748359680E0	9,751176742E0
3,158999750E-1	2,201396823E-1	1,124626622E-1	9,777072906E0	9,780197541E0
3,170960160E-1	2,273181528E-1	1,076770201E-1	9,803394318E0	9,806620622E0
3,182920580E-1	2,153540403E-1	9,092725813E-2	9,829715729E0	9,832494924E0
3,194881000E-1	1,938186288E-1	7,178468257E-2	9,863214493E0	9,865379812E0
3,206841410E-1	1,842473447E-1	4,785645381E-2	9,894321442E0	9,896152490E0
3,218801830E-1	1,914258152E-1	1,674975827E-2	9,918250084E0	9,920111346E0
3,230762250E-1	2,057827413E-1	-1,196411345E-2	9,944570541E0	9,946706637E0
3,242722660E-1	2,129612118E-1	-3,589234129E-2	9,958928108E0	9,961269487E0
3,254683080E-1	2,201396823E-1	-5,503492057E-2	9,961320877E0	9,963905055E0
3,266642980E-1	2,297109663E-1	-7,417750359E-2	9,963713646E0	9,966637299E0
3,278603910E-1	2,321037948E-1	-9,571290761E-2	9,966106415E0	9,969268288E0
3,290564330E-1	2,273181528E-1	-1,196411327E-1	9,973284721E0	9,976592388E0
3,302524750E-1	2,081755698E-1	-1,244267747E-1	9,975677490E0	9,978625180E0
3,314485160E-1	2,033899277E-1	-1,124626622E-1	9,966106415E0	9,968815997E0
3,326445060E-1	1,938186288E-1	-1,004985496E-1	9,966106415E0	9,968497514E0
3,338406000E-1	1,818545163E-1	-7,896314561E-2	9,956535339E0	9,958509035E0
3,350366410E-1	1,818545163E-1	-6,460621208E-2	9,942177773E0	9,944050678E0
3,362326830E-1	1,770688742E-1	-6,460621208E-2	9,939785004E0	9,941571972E0
3,374286730E-1	1,651047617E-1	-6,460621208E-2	9,942177773E0	9,943758465E0
3,386247140E-1	1,411765367E-1	-5,982056633E-2	9,939785004E0	9,940967520E0
3,398207560E-1	1,268195957E-1	-3,110669367E-2	9,927821159E0	9,928679862E0
3,410167980E-1	1,124626622E-1	0,000000000E0	9,915857315E0	9,916495053E0
3,422128390E-1	9,810572863E-2	1,674975827E-2	9,903892517E0	9,904392575E0
3,434088810E-1	8,374879509E-2	3,828516230E-2	9,894321442E0	9,894749942E0
3,446049230E-1	7,657032460E-2	5,503492057E-2	9,882357597E0	9,882807473E0
3,458009640E-1	7,896314561E-2	6,699903309E-2	9,872786522E0	9,873329619E0
3,469970060E-1	9,332008660E-2	7,417750359E-2	9,860821724E0	9,861542273E0
3,481930480E-1	1,148554832E-1	6,699903309E-2	9,846465111E0	9,847362887E0
3,493890890E-1	1,292124242E-1	4,785645381E-2	9,832108498E0	9,833073965E0
3,505851310E-1	1,387837082E-1	4,307080805E-2	9,801001549E0	9,802078727E0
3,517811730E-1	1,435693651E-1	4,785645381E-2	9,769894600E0	9,771066620E0
3,529772140E-1	1,579262912E-1	3,589234129E-2	9,750752449E0	9,752097328E0
3,541732560E-1	1,627119333E-1	2,632104978E-2	9,745966911E0	9,747360617E0
3,553692980E-1	1,674975902E-1	2,392822690E-2	9,738788605E0	9,740258287E0
3,565653390E-1	1,890329868E-1	2,153540403E-2	9,738788605E0	9,740646833E0
3,577613810E-1	2,057827413E-1	1,674975827E-2	9,743574142E0	9,745761343E0
3,589574230E-1	2,081755698E-1	7,178467698E-3	9,748359680E0	9,750584857E0
3,601534640E-1	2,081755698E-1	1,196411345E-2	9,760323524E0	9,762550666E0
3,613495060E-1	2,225325108E-1	1,914258115E-2	9,772287369E0	9,774839517E0
3,625455480E-1	2,344966233E-1	2,632104978E-2	9,779465675E0	9,782312117E0
3,637415890E-1	2,273181528E-1	2,153540403E-2	9,784252167E0	9,786916153E0
3,649376310E-1	2,273181528E-1	1,674975827E-2	9,786644936E0	9,789298912E0
3,661336730E-1	2,249253243E-1	1,914258115E-2	9,781859398E0	9,784463763E0
3,673297140E-1	2,105683982E-1	2,153540403E-2	9,779465675E0	9,781756065E0
3,685257560E-1	2,009970993E-1	3,589234129E-2	9,772287369E0	9,774420111E0
3,697217980E-1	1,914258152E-1	3,828516230E-2	9,765109062E0	9,767060182E0
3,709178390E-1	1,794617027E-1	2,632104978E-2	9,765109062E0	9,766793450E0
3,721138810E-1	1,651047617E-1	1,435693540E-2	9,769894600E0	9,771300128E0
3,733099230E-1	1,507478207E-1	1,435693540E-2	9,772287369E0	9,773460567E0
3,745059640E-1	1,483550072E-1	2,632104978E-2	9,762716293E0	9,763878913E0
3,757020060E-1	1,507478207E-1	2,392822690E-2	9,755537987E0	9,756731977E0
3,768980480E-1	1,435693651E-1	2,153540403E-2	9,753145218E0	9,754225627E0
3,780940890E-1	1,292124242E-1	1,435693540E-2	9,757930756E0	9,758796781E0
3,792901310E-1	1,292124242E-1	7,178467698E-3	9,760323524E0	9,761181418E0
3,804861730E-1	1,316052526E-1	2,392822644E-3	9,757930756E0	9,758818489E0
3,816822140E-1	1,316052526E-1	-1,196411345E-2	9,753145218E0	9,754040431E0
3,828782560E-1	1,387837082E-1	-2,632104978E-2	9,745966911E0	9,746990548E0
3,840742980E-1	1,531406492E-1	-3,349951655E-2	9,748359680E0	9,749620030E0
3,852703390E-1	1,483550072E-1	-4,307080805E-2	9,757930756E0	9,759153495E0
3,864663810E-1	1,483550072E-1	-3,828516230E-2	9,750752449E0	9,751956126E0
3,876624230E-1	1,603191197E-1	-3,828516230E-2	9,736394882E0	9,737789959E0
3,888584640E-1	1,603191197E-1	-5,024927482E-2	9,738788605E0	9,740237713E0
3,900545060E-1	1,603191197E-1	-6,460621208E-2	9,743574142E0	9,745107144E0
3,912505480E-1	1,603191197E-1	-7,417750359E-2	9,757930756E0	9,759529556E0
3,924465890E-1	1,531406492E-1	-7,896314561E-2	9,777072906E0	9,778590995E0
3,936426310E-1	1,459621787E-1	-7,896314561E-2	9,789037704E0	9,790444286E0
3,948386730E-1	1,411765367E-1	-8,135596663E-2	9,805787086E0	9,807140765E0
3,960347140E-1	1,268195957E-1	-9,571290761E-2	9,834501266E0	9,835784632E0
3,972307560E-1	1,100698411E-1	-1,052841991E-1	9,858428955E0	9,859605550E0
3,984267980E-1	8,853443712E-2	-1,028913707E-1	9,870393753E0	9,871327055E0
3,996228390E-1	6,699903309E-2	-9,571290761E-2	9,884750366E0	9,885440791E0
4,008188810E-1	6,221338734E-2	-8,374879509E-2	9,903892517E0	9,904442001E0
4,020149230E-1	6,460621208E-2	-7,178468257E-2	9,923035622E0	9,923505578E0
4,032109640E-1	6,221338734E-2	-7,178468257E-2	9,927821159E0	9,928275606E0
4,044070060E-1	5,982056633E-2	-6,460621208E-2	9,923035622E0	9,923426244E0
4,056030480E-1	6,939185411E-2	-4,546362907E-2	9,923035622E0	9,923382393E0
4,067990890E-1	8,374879509E-2	-3,589234129E-2	9,925428391E0	9,925846607E0
4,079951310E-1	8,374879509E-2	-2,871387079E-2	9,915857315E0	9,916252550E0
4,091911730E-1	9,332008660E-2	-1,435693540E-2	9,899106979E0	9,899557250E0
4,103872140E-1	1,148554832E-1	-7,178467698E-3	9,894321442E0	9,894990657E0
4,115832560E-1	1,339980662E-1	1,196411345E-2	9,896714211E0	9,897628544E0
4,127792980E-1	1,435693651E-1	1,914258115E-2	9,896714211E0	9,897774031E0
4,139753390E-1	1,531406492E-1	1,435693540E-2	9,889535904E0	9,890731953E0
4,151713810E-1	1,698904037E-1	1,196411345E-2	9,879964828E0	9,881432634E0
4,163674230E-1	1,938186288E-1	1,196411345E-2	9,870393753E0	9,872303766E0
4,175634640E-1	2,201396823E-1	1,196411345E-2	9,851250648E0	9,853717266E0
4,187595060E-1	2,297109663E-1	1,914258115E-2	9,832108498E0	9,834810170E0
4,199555480E-1	2,368894368E-1	2,632104978E-2	9,822537422E0	9,825428785E0
4,211515890E-1	2,536391914E-1	3,110669367E-2	9,812965393E0	9,816292084E0
4,223476310E-1	2,608176768E-1	3,349951655E-2	9,805787086E0	9,809312334E0
4,235436730E-1	2,632105052E-1	3,349951655E-2	9,801001549E0	9,804592462E0
4,247397140E-1	2,727817893E-1	4,785645381E-2	9,801001549E0	9,804913641E0
4,259357560E-1	2,703889608E-1	6,460621208E-2	9,805787086E0	9,809727037E0
4,271317980E-1	2,608176768E-1	6,699903309E-2	9,812965393E0	9,816659541E0
4,283278390E-1	2,632105052E-1	6,699903309E-2	9,827322960E0	9,831075485E0
4,295238810E-1	2,632105052E-1	7,417750359E-2	9,836894035E0	9,840694403E0
4,307199230E-1	2,608176768E-1	8,135596663E-2	9,841679573E0	9,845471115E0
4,319159120E-1	2,632105052E-1	8,614161611E-2	9,846465111E0	9,850359147E0
4,331120060E-1	2,703889608E-1	9,092725813E-2	9,844072342E0	9,848204823E0
4,343079960E-1	2,727817893E-1	9,571290761E-2	9,832108498E0	9,836357475E0
4,355040370E-1	2,703889608E-1	9,810572863E-2	9,817750931E0	9,821963565E0
4,367000790E-1	2,775674164E-1	9,810572863E-2	9,820143700E0	9,824555496E0
4,378961210E-1	2,775674164E-1	1,052841991E-1	9,822537422E0	9,827022430E0
4,390921620E-1	2,632105052E-1	1,004985496E-1	9,815358162E0	9,819400978E0
4,402882040E-1	2,512463629E-1	9,332008660E-2	9,808179855E0	9,811841084E0
4,414842460E-1	2,488535494E-1	9,571290761E-2	9,810572624E0	9,814195039E0
4,426802870E-1	2,608176768E-1	8,374879509E-2	9,812965393E0	9,816788147E0
4,438763290E-1	2,727817893E-1	5,982056633E-2	9,810572624E0	9,814546532E0
4,450723710E-1	2,751746178E-1	5,264209956E-2	9,801001549E0	9,805005029E0
4,462684120E-1	2,823530734E-1	4,785645381E-2	9,789037704E0	9,793225857E0
4,474644540E-1	2,823530734E-1	3,828516230E-2	9,781859398E0	9,786008496E0
4,486604960E-1	2,727817893E-1	3,349951655E-2	9,784252167E0	9,788111288E0
4,498565370E-1	2,703889608E-1	2,153540403E-2	9,793823242E0	9,797578663E0
4,510525790E-1	2,727817893E-1	2,392822644E-3	9,798608780E0	9,802405299E0
4,522486210E-1	2,679961324E-1	-4,785645287E-3	9,805787086E0	9,809449792E0
4,534446620E-1	2,416750938E-1	0,000000000E0	9,817750931E0	9,820725034E0
4,546407040E-1	2,177468538E-1	-2,392822644E-3	9,841679573E0	9,844088390E0
4,558367460E-1	2,033899277E-1	-4,785645287E-3	9,860821724E0	9,862920229E0
4,570327870E-1	1,770688742E-1	0,000000000E0	9,875179291E0	9,876766648E0
4,582288290E-1	1,531406492E-1	1,435693540E-2	9,896714211E0	9,897909393E0
4,594248710E-1	1,339980662E-1	1,674975827E-2	9,911071777E0	9,911991718E0
4,606209120E-1	1,148554832E-1	7,178467698E-3	9,918250084E0	9,918917685E0
4,618169540E-1	9,810572863E-2	4,785645287E-3	9,932606697E0	9,933092340E0
4,630129960E-1	8,614161611E-2	-4,785645287E-3	9,951749802E0	9,952123763E0
4,642090370E-1	8,135596663E-2	-1,435693540E-2	9,968499184E0	9,968841502E0
4,654050790E-1	7,178468257E-2	-1,435693540E-2	9,985248566E0	9,985516916E0
4,666011210E-1	6,699903309E-2	-4,785645287E-3	9,999606133E0	9,999831727E0
4,677971620E-1	8,135596663E-2	0,000000000E0	9,994820595E0	9,995151700E0
4,689932040E-1	8,853443712E-2	2,392822644E-3	9,987641335E0	9,988034016E0
4,701892460E-1	8,614161611E-2	9,571290575E-3	9,997213364E0	9,997589061E0
4,713852870E-1	9,810572863E-2	1,196411345E-2	1,000678444E1	1,000727249E1
4,725813290E-1	1,148554832E-1	1,435693540E-2	1,001396275E1	1,001463168E1
4,737773710E-1	1,148554832E-1	1,914258115E-2	1,001635551E1	1,001703230E1
4,749734120E-1	1,244267747E-1	1,674975827E-2	1,002114105E1	1,002192749E1
4,761694540E-1	1,316052526E-1	2,632104978E-2	1,003071213E1	1,003160997E1
4,773654960E-1	1,316052526E-1	3,589234129E-2	1,003549862E1	1,003642570E1
4,785615370E-1	1,459621787E-1	5,024927482E-2	1,004506969E1	1,004625578E1
4,797575790E-1	1,651047617E-1	5,742774159E-2	1,004985523E1	1,005137541E1
4,809536210E-1	1,722832322E-1	6,221338734E-2	1,004985523E1	1,005152437E1
4,821496620E-1	1,746760458E-1	5,742774159E-2	1,005224800E1	1,005392956E1
4,833457040E-1	1,770688742E-1	4,785645381E-2	1,005464077E1	1,005631367E1
4,845417460E-1	1,914258152E-1	4,067798331E-2	1,005224800E1	1,005415279E1
4,857377870E-1	2,153540403E-1	3,828516230E-2	1,004746246E1	1,004984304E1
4,869338290E-1	2,273181528E-1	4,546362907E-2	1,003310490E1	1,003578270E1
4,881298710E-1	2,368894368E-1	4,546362907E-2	1,000917721E1	1,001208330E1
4,893259120E-1	2,440679073E-1	4,546362907E-2	9,994820595E0	9,997903521E0
4,905219540E-1	2,392822653E-1	5,264209956E-2	9,985248566E0	9,988253907E0
4,917179960E-1	2,225325108E-1	5,982056633E-2	9,970891953E0	9,973554309E0
4,929140370E-1	2,081755698E-1	5,024927482E-2	9,949356079E0	9,951660587E0
4,941100790E-1	2,081755698E-1	4,785645381E-2	9,920642853E0	9,922942201E0
4,953061210E-1	1,962114573E-1	5,742774159E-2	9,894321442E0	9,896433381E0
4,965021620E-1	1,794617027E-1	5,982056633E-2	9,879964828E0	9,881775651E0
4,976982040E-1	1,651047617E-1	5,742774159E-2	9,875179291E0	9,876726358E0
4,988942460E-1	1,459621787E-1	5,742774159E-2	9,872786522E0	9,874032439E0
5,000902870E-1	1,316052526E-1	5,503492057E-2	9,872786522E0	9,873817017E0
5,012863290E-1	1,172483116E-1	4,785645381E-2	9,868000984E0	9,868813547E0
5,024823710E-1	1,028913707E-1	3,349951655E-2	9,858428955E0	9,859022787E0
5,036784120E-1	1,004985496E-1	2,632104978E-2	9,844072342E0	9,844620512E0
5,048744540E-1	9,810572863E-2	2,153540403E-2	9,836894035E0	9,837406811E0
5,060704960E-1	8,853443712E-2	1,196411345E-2	9,817750931E0	9,818157405E0
5,072665370E-1	8,374879509E-2	-7,178467698E-3	9,791430473E0	9,791791261E0
5,084625270E-1	1,052841991E-1	-2,392822690E-2	9,774680138E0	9,775276421E0
5,096586210E-1	1,268195957E-1	-3,349951655E-2	9,760323524E0	9,761204881E0
5,108546620E-1	1,387837082E-1	-5,024927482E-2	9,750752449E0	9,751869525E0
5,120507040E-1	1,435693651E-1	-5,982056633E-2	9,748359680E0	9,749600357E0
5,132467460E-1	1,531406492E-1	-5,742774159E-2	9,745966911E0	9,747339177E0
5,144427350E-1	1,746760458E-1	-5,982056633E-2	9,745966911E0	9,747715694E0
5,156387770E-1	1,842473447E-1	-6,939185411E-2	9,748359680E0	9,750347623E0
5,168348190E-1	1,890329868E-1	-6,460621208E-2	9,750752449E0	9,752798611E0
5,180308600E-1	2,009970993E-1	-4,785645381E-2	9,750752449E0	9,752941269E0
5,192269020E-1	2,033899277E-1	-3,589234129E-2	9,760323524E0	9,762508439E0
5,204229440E-1	2,057827413E-1	-3,349951655E-2	9,772287369E0	9,774511199E0
5,216189850E-1	2,201396823E-1	-3,349951655E-2	9,772287369E0	9,774823994E0
5,228150270E-1	2,392822653E-1	-3,828516230E-2	9,769894600E0	9,772899378E0
5,240110690E-1	2,464607358E-1	-4,785645381E-2	9,769894600E0	9,773119954E0
5,252071100E-1	2,464607358E-1	-5,503492057E-2	9,760323524E0	9,763589864E0
5,264031520E-1	2,536391914E-1	-5,742774159E-2	9,755537987E0	9,759003648E0
5,275991940E-1	2,584248483E-1	-6,699903309E-2	9,757930756E0	9,761582090E0
5,287952350E-1	2,560320199E-1	-7,417750359E-2	9,762716293E0	9,766354700E0
5,299912770E-1	2,536391914E-1	-7,657032460E-2	9,760323524E0	9,763918842E0
5,311873190E-1	2,560320199E-1	-6,699903309E-2	9,755537987E0	9,759127147E0
5,323833600E-1	2,560320199E-1	-5,264209956E-2	9,760323524E0	9,763822965E0
5,335794020E-1	2,536391914E-1	-5,503492057E-2	9,767501831E0	9,770949478E0
5,347754440E-1	2,416750938E-1	-5,982056633E-2	9,777072906E0	9,780242327E0
5,359714850E-1	2,368894368E-1	-5,264209956E-2	9,789037704E0	9,792045086E0
5,371675270E-1	2,392822653E-1	-3,349951655E-2	9,796216011E0	9,799195189E0
5,383635690E-1	2,368894368E-1	-2,392822690E-2	9,793823242E0	9,796716943E0
5,395596100E-1	2,225325108E-1	-2,153540403E-2	9,796216011E0	9,798766893E0
5,407556520E-1	2,105683982E-1	-1,196411345E-2	9,808179855E0	9,810447200E0
5,419516940E-1	2,057827413E-1	-2,392822644E-3	9,810572624E0	9,812730888E0
5,431477350E-1	1,866401732E-1	9,571290575E-3	9,796216011E0	9,797998484E0
5,443437770E-1	1,770688742E-1	3,349951655E-2	9,784252167E0	9,785911611E0
5,455398190E-1	1,890329868E-1	4,785645381E-2	9,777072906E0	9,779017248E0
5,467358600E-1	1,938186288E-1	4,546362907E-2	9,767501831E0	9,769530420E0
5,479319020E-1	1,938186288E-1	5,503492057E-2	9,762716293E0	9,764795130E0
5,491279440E-1	1,986042857E-1	6,939185411E-2	9,757930756E0	9,760198334E0
5,503239850E-1	1,938186288E-1	7,417750359E-2	9,745966911E0	9,748176188E0
5,515200270E-1	1,818545163E-1	7,657032460E-2	9,731609344E0	9,733609532E0
5,527160690E-1	1,746760458E-1	7,417750359E-2	9,734002113E0	9,735851846E0
5,539121100E-1	1,651047617E-1	6,939185411E-2	9,736394882E0	9,738041903E0
5,551081520E-1	1,579262912E-1	6,939185411E-2	9,731609344E0	9,733138054E0
5,563041940E-1	1,555334777E-1	7,896314561E-2	9,734002113E0	9,735564852E0
5,575002350E-1	1,483550072E-1	8,135596663E-2	9,738788605E0	9,740258287E0
5,586962770E-1	1,387837082E-1	6,939185411E-2	9,745966911E0	9,747202018E0
5,598923190E-1	1,316052526E-1	5,742774159E-2	9,755537987E0	9,756594657E0
5,610883600E-1	1,220339537E-1	4,546362907E-2	9,755537987E0	9,756407158E0
5,622844020E-1	1,292124242E-1	2,871387079E-2	9,765109062E0	9,766006110E0
5,634804440E-1	1,483550072E-1	7,178467698E-3	9,786644936E0	9,787771955E0
5,646764850E-1	1,555334777E-1	-4,785645287E-3	9,805787086E0	9,807021666E0
5,658725270E-1	1,627119333E-1	-1,435693540E-2	9,810572624E0	9,811932353E0
5,670685690E-1	1,651047617E-1	-2,392822690E-2	9,812965393E0	9,814383422E0
5,682646100E-1	1,674975902E-1	-3,589234129E-2	9,827322960E0	9,828815812E0
5,694606520E-1	1,722832322E-1	-5,503492057E-2	9,839286804E0	9,840948896E0
5,706566940E-1	1,674975902E-1	-6,221338734E-2	9,846465111E0	9,848086166E0
5,718527350E-1	1,627119333E-1	-5,982056633E-2	9,856036186E0	9,857560701E0
5,730487770E-1	1,579262912E-1	-7,896314561E-2	9,853643417E0	9,855225238E0
5,742448190E-1	1,507478207E-1	-9,571290761E-2	9,848857880E0	9,850476506E0
5,754408600E-1	1,411765367E-1	-9,810572863E-2	9,851250648E0	9,852750625E0
5,766369020E-1	1,244267747E-1	-1,004985496E-1	9,848857880E0	9,850156522E0
5,778329440E-1	1,220339537E-1	-1,124626622E-1	9,844072342E0	9,845471061E0
5,790289850E-1	1,172483116E-1	-1,316052526E-1	9,839286804E0	9,840865405E0
5,802250270E-1	1,100698411E-1	-1,363908947E-1	9,829715729E0	9,831278104E0
5,814210690E-1	1,148554832E-1	-1,363908947E-1	9,815358162E0	9,816977646E0
5,826171100E-1	1,196411327E-1	-1,459621787E-1	9,803394318E0	9,805210814E0
5,838131520E-1	1,244267747E-1	-1,483550072E-1	9,801001549E0	9,802913985E0
5,850091940E-1	1,244267747E-1	-1,387837082E-1	9,801001549E0	9,802773806E0
5,862051830E-1	1,172483116E-1	-1,268195957E-1	9,791430473E0	9,792953645E0
5,874012770E-1	1,076770201E-1	-1,100698411E-1	9,769894600E0	9,771107931E0
5,885973190E-1	9,571290761E-2	-1,004985496E-1	9,757930756E0	9,758917642E0
5,897933080E-1	8,614161611E-2	-8,614161611E-2	9,748359680E0	9,749120843E0
5,909893500E-1	8,614161611E-2	-5,982056633E-2	9,726823807E0	9,727389179E0
5,921853910E-1	8,135596663E-2	-5,024927482E-2	9,712467194E0	9,712937906E0
5,933814330E-1	7,178468257E-2	-5,503492057E-2	9,707681656E0	9,708103060E0
5,945774750E-1	8,614161611E-2	-4,546362907E-2	9,712467194E0	9,712955591E0
5,957735160E-1	9,332008660E-2	-4,307080805E-2	9,734002113E0	9,734544718E0
5,969696100E-1	9,092725813E-2	-4,307080805E-2	9,765109062E0	9,765627366E0
5,981656000E-1	1,028913707E-1	-3,349951655E-2	9,803394318E0	9,803991483E0
5,993616410E-1	1,172483116E-1	-1,674975827E-2	9,844072342E0	9,844784812E0
6,005576830E-1	1,292124242E-1	-4,785645287E-3	9,877572060E0	9,878418322E0
6,017537250E-1	1,387837082E-1	1,196411345E-2	9,896714211E0	9,897694490E0
6,029497660E-1	1,339980662E-1	4,067798331E-2	9,913464546E0	9,914453565E0
6,041458080E-1	1,244267747E-1	6,699903309E-2	9,932606697E0	9,933611966E0
6,053418500E-1	1,124626622E-1	8,614161611E-2	9,946963310E0	9,947972021E0
6,065378910E-1	1,004985496E-1	1,052841991E-1	9,961320877E0	9,962384169E0
6,077339330E-1	9,571290761E-2	1,268195957E-1	9,980463028E0	9,981727627E0
6,089299750E-1	9,092725813E-2	1,363908947E-1	9,992427826E0	9,993772266E0
6,101260160E-1	8,853443712E-2	1,459621787E-1	9,985248566E0	9,986707777E0
6,113220580E-1	9,571290761E-2	1,483550072E-1	9,980463028E0	9,982024465E0
6,125181000E-1	1,148554832E-1	1,387837082E-1	9,975677490E0	9,977303949E0
6,137141410E-1	1,316052526E-1	1,268195957E-1	9,958928108E0	9,960605013E0
6,149101830E-1	1,316052526E-1	1,220339537E-1	9,937392235E0	9,939012861E0
6,161062250E-1	1,244267747E-1	1,292124242E-1	9,915857315E0	9,917479729E0
6,173022660E-1	1,148554832E-1	1,387837082E-1	9,903892517E0	9,905530763E0
6,184983080E-1	9,571290761E-2	1,292124242E-1	9,891928673E0	9,893235552E0
6,196943500E-1	9,092725813E-2	1,124626622E-1	9,875179291E0	9,876238233E0
6,208903910E-1	9,332008660E-2	9,810572863E-2	9,856036186E0	9,856966200E0
6,220864330E-1	8,853443712E-2	7,896314561E-2	9,841679573E0	9,842394543E0
6,232824750E-1	8,135596663E-2	5,742774159E-2	9,829715729E0	9,830220142E0
6,244785160E-1	7,896314561E-2	4,307080805E-2	9,827322960E0	9,827734573E0
6,256745580E-1	8,853443712E-2	2,392822690E-2	9,820143700E0	9,820571938E0
6,268706000E-1	9,571290761E-2	2,153540403E-2	9,803394318E0	9,803885193E0
6,280666410E-1	9,092725813E-2	3,828516230E-2	9,793823242E0	9,794320151E0
6,292626830E-1	8,135596663E-2	4,307080805E-2	9,789037704E0	9,789470520E0
6,304587250E-1	7,657032460E-2	2,871387079E-2	9,789037704E0	9,789379280E0
6,316547660E-1	7,417750359E-2	1,674975827E-2	9,791430473E0	9,791725771E0
6,328508080E-1	6,939185411E-2	0,000000000E0	9,784252167E0	9,784498234E0
6,340468500E-1	5,982056633E-2	-1,914258115E-2	9,779465675E0	9,779667368E0
6,352428910E-1	4,546362907E-2	-1,914258115E-2	9,784252167E0	9,784376518E0
6,364389330E-1	3,349951655E-2	-4,067798331E-2	9,791430473E0	9,791572276E0
6,376349750E-1	4,067798331E-2	-6,699903309E-2	9,786644936E0	9,786958806E0
6,388310160E-1	4,307080805E-2	-6,939185411E-2	9,781859398E0	9,782200346E0
6,400270580E-1	4,785645381E-2	-6,221338734E-2	9,769894600E0	9,770209887E0
6,412231000E-1	5,503492057E-2	-6,460621208E-2	9,753145218E0	9,753514466E0
6,424191410E-1	5,982056633E-2	-7,417750359E-2	9,745966911E0	9,746432775E0
6,436151830E-1	6,460621208E-2	-7,657032460E-2	9,741181374E0	9,741696543E0
6,448112250E-1	6,221338734E-2	-8,374879509E-2	9,731609344E0	9,732168556E0
6,460072660E-1	5,264209956E-2	-8,853443712E-2	9,710074425E0	9,710620725E0
6,472033080E-1	5,264209956E-2	-8,135596663E-2	9,686145782E0	9,686630482E0
6,483993500E-1	6,221338734E-2	-5,982056633E-2	9,678967476E0	9,679352272E0
6,495953910E-1	7,417750359E-2	-5,264209956E-2	9,681360245E0	9,681787525E0
6,507914330E-1	8,853443712E-2	-5,024927482E-2	9,674181938E0	9,674717542E0
6,519874750E-1	9,332008660E-2	-4,546362907E-2	9,659825325E0	9,660383061E0
6,531835160E-1	1,052841991E-1	-5,024927482E-2	9,645467758E0	9,646173232E0
6,543795580E-1	1,244267747E-1	-5,742774159E-2	9,631111145E0	9,632086059E0
6,555756000E-1	1,339980662E-1	-5,742774159E-2	9,623932838E0	9,625036972E0
6,567716410E-1	1,459621787E-1	-5,024927482E-2	9,611968994E0	9,613208512E0
6,579676310E-1	1,459621787E-1	-5,264209956E-2	9,595218658E0	9,596473167E0
6,591636730E-1	1,459621787E-1	-6,460621208E-2	9,583254814E0	9,584584068E0
6,603597140E-1	1,579262912E-1	-5,742774159E-2	9,576076508E0	9,577550832E0
6,615558080E-1	1,722832322E-1	-5,264209956E-2	9,568898201E0	9,570593790E0
6,627517980E-1	1,890329868E-1	-5,742774159E-2	9,571290970E0	9,573329737E0
6,639478390E-1	1,770688742E-1	-5,264209956E-2	9,583254814E0	9,585035076E0
6,651438810E-1	1,507478207E-1	-5,264209956E-2	9,602396965E0	9,603724463E0
6,663399230E-1	1,435693651E-1	-5,264209956E-2	9,623932838E0	9,625147616E0
6,675359640E-1	1,363908947E-1	-5,503492057E-2	9,655039787E0	9,656159931E0
6,687320060E-1	1,244267747E-1	-5,982056633E-2	9,683753014E0	9,684737113E0
6,699280480E-1	1,244267747E-1	-5,264209956E-2	9,702896118E0	9,703836679E0
6,711240890E-1	1,220339537E-1	-5,264209956E-2	9,724431038E0	9,725339197E0
6,723201310E-1	1,196411327E-1	-5,503492057E-2	9,734002113E0	9,734892911E0
6,735161730E-1	1,196411327E-1	-4,785645381E-2	9,741181374E0	9,742033607E0
6,747122140E-1	1,052841991E-1	-5,264209956E-2	9,745966911E0	9,746677741E0
6,759082560E-1	9,092725813E-2	-5,503492057E-2	9,748359680E0	9,748939074E0
6,771042980E-1	7,657032460E-2	-4,307080805E-2	9,753145218E0	9,753540883E0
6,783003390E-1	6,939185411E-2	-3,589234129E-2	9,755537987E0	9,755850804E0
6,794963810E-1	6,460621208E-2	-2,392822690E-2	9,753145218E0	9,753388548E0
6,806924230E-1	5,024927482E-2	-4,785645287E-3	9,753145218E0	9,753275836E0
6,818884640E-1	4,067798331E-2	4,785645287E-3	9,762716293E0	9,762802212E0
6,830845060E-1	4,307080805E-2	4,785645287E-3	9,779465675E0	9,779561692E0
6,842805480E-1	4,307080805E-2	1,674975827E-2	9,798608780E0	9,798717756E0
6,854765890E-1	4,067798331E-2	3,589234129E-2	9,810572624E0	9,810722612E0
6,866726310E-1	5,024927482E-2	4,067798331E-2	9,812965393E0	9,813178358E0
6,878686730E-1	6,939185411E-2	4,067798331E-2	9,820143700E0	9,820473115E0
6,890647140E-1	9,332008660E-2	3,589234129E-2	9,832108498E0	9,832616865E0
6,902607560E-1	1,076770201E-1	4,307080805E-2	9,848857880E0	9,849540648E0
6,914567980E-1	1,196411327E-1	4,785645381E-2	9,877572060E0	9,878412526E0
6,926528390E-1	1,387837082E-1	3,828516230E-2	9,901499748E0	9,902546336E0
6,938488810E-1	1,579262912E-1	3,110669367E-2	9,925428391E0	9,926733454E0
6,950449230E-1	1,746760458E-1	3,349951655E-2	9,946963310E0	9,948553314E0
6,962409640E-1	1,866401732E-1	4,785645381E-2	9,951749802E0	9,953614866E0
6,974370060E-1	1,986042857E-1	5,742774159E-2	9,958928108E0	9,961073771E0
6,986330480E-1	2,081755698E-1	5,264209956E-2	9,966106415E0	9,968419400E0
6,998290890E-1	2,177468538E-1	6,460621208E-2	9,966106415E0	9,968694234E0
7,010251310E-1	2,249253243E-1	8,135596663E-2	9,951749802E0	9,954623765E0
7,022211730E-1	2,321037948E-1	8,135596663E-2	9,944570541E0	9,947611483E0
7,034172140E-1	2,321037948E-1	7,896314561E-2	9,944570541E0	9,947592201E0
7,046132560E-1	2,392822653E-1	7,178468257E-2	9,930213928E0	9,933355813E0
7,058092980E-1	2,344966233E-1	6,460621208E-2	9,911071777E0	9,914056002E0
7,070053390E-1	2,297109663E-1	6,460621208E-2	9,906285286E0	9,909158857E0
7,082013810E-1	2,392822653E-1	6,221338734E-2	9,906285286E0	9,909370044E0
7,093974230E-1	2,464607358E-1	4,785645381E-2	9,903892517E0	9,907074246E0
7,105934640E-1	2,512463629E-1	4,067798331E-2	9,903892517E0	9,907162380E0
7,117895060E-1	2,632105052E-1	3,349951655E-2	9,915857315E0	9,919406650E0
7,129855480E-1	2,703889608E-1	2,871387079E-2	9,923035622E0	9,926760329E0
7,141815890E-1	2,727817893E-1	3,349951655E-2	9,920642853E0	9,924448939E0
7,153776310E-1	2,751746178E-1	2,871387079E-2	9,925428391E0	9,929283675E0
7,165736730E-1	2,775674164E-1	1,914258115E-2	9,932606697E0	9,936502700E0
7,177697140E-1	2,919243574E-1	1,914258115E-2	9,937392235E0	9,941697576E0
7,189657560E-1	3,182454109E-1	9,571290575E-3	9,927821159E0	9,932925285E0
7,201617980E-1	3,254238665E-1	-7,178467698E-3	9,918250084E0	9,923589923E0
7,213577870E-1	3,326023519E-1	-1,435693540E-2	9,913464546E0	9,919052866E0
7,225538290E-1	3,421736360E-1	-1,914258115E-2	9,899106979E0	9,905037518E0
7,237498710E-1	3,397808075E-1	-3,110669367E-2	9,889535904E0	9,895420103E0
7,249459120E-1	3,493520916E-1	-4,307080805E-2	9,891928673E0	9,898189473E0
7,261419540E-1	3,589234054E-1	-5,024927482E-2	9,887143135E0	9,893783421E0
7,273379960E-1	3,565305769E-1	-5,024927482E-2	9,868000984E0	9,874567457E0
7,285340370E-1	3,684946895E-1	-5,024927482E-2	9,851250648E0	9,858268239E0
7,297300790E-1	3,756731451E-1	-4,785645381E-2	9,839286804E0	9,846572265E0
7,309261210E-1	3,708875179E-1	-5,264209956E-2	9,824930191E0	9,832069060E0
7,321221620E-1	3,589234054E-1	-5,742774159E-2	9,803394318E0	9,810130687E0
7,333182040E-1	3,493520916E-1	-5,742774159E-2	9,786644936E0	9,793046713E0
7,345142460E-1	3,469592929E-1	-4,307080805E-2	9,774680138E0	9,780930817E0
7,357102870E-1	3,373879790E-1	-3,349951655E-2	9,767501831E0	9,773384515E0
7,369063290E-1	3,182454109E-1	-1,674975827E-2	9,767501831E0	9,772699357E0
7,381023710E-1	3,038884699E-1	4,785645287E-3	9,769894600E0	9,774620790E0
7,392984120E-1	3,110669553E-1	1,914258115E-2	9,779465675E0	9,784430386E0
7,404944540E-1	3,182454109E-1	2,153540403E-2	9,793823242E0	9,799016155E0
7,416904960E-1	3,254238665E-1	3,110669367E-2	9,791430473E0	9,796886191E0
7,428865370E-1	3,278166950E-1	4,546362907E-2	9,796216011E0	9,801804878E0
7,440825790E-1	3,230310678E-1	4,546362907E-2	9,805787086E0	9,811211770E0
7,452786210E-1	3,302095234E-1	4,546362907E-2	9,810572624E0	9,816233518E0
7,464746620E-1	3,326023519E-1	4,307080805E-2	9,817750931E0	9,823477631E0
7,476707040E-1	3,182454109E-1	4,067798331E-2	9,824930191E0	9,830167247E0
7,488667460E-1	3,158525825E-1	4,546362907E-2	9,829715729E0	9,834894057E0
7,500627870E-1	3,254238665E-1	4,546362907E-2	9,844072342E0	9,849554706E0
7,512588290E-1	3,254238665E-1	5,264209956E-2	9,863214493E0	9,868721904E0
7,524548710E-1	3,254238665E-1	6,699903309E-2	9,879964828E0	9,885549786E0
7,536509120E-1	3,158525825E-1	5,982056633E-2	9,894321442E0	9,899542320E0
7,548469540E-1	2,967100143E-1	4,785645381E-2	9,903892517E0	9,908451648E0
7,560429960E-1	2,847459018E-1	3,828516230E-2	9,925428391E0	9,929585828E0
7,572390370E-1	2,775674164E-1	2,632104978E-2	9,944570541E0	9,948478262E0
7,584350790E-1	2,632105052E-1	7,178467698E-3	9,946963310E0	9,950447749E0
7,596311210E-1	2,416750938E-1	-1,674975827E-2	9,944570541E0	9,947520830E0
7,608271620E-1	2,105683982E-1	-3,589234129E-2	9,951749802E0	9,954041964E0
7,620232040E-1	1,914258152E-1	-5,264209956E-2	9,963713646E0	9,965691379E0
7,632192460E-1	1,794617027E-1	-5,982056633E-2	9,970891953E0	9,972686265E0
7,644152870E-1	1,555334777E-1	-5,503492057E-2	9,978070259E0	9,979434132E0
7,656113290E-1	1,244267747E-1	-4,785645381E-2	9,987641335E0	9,988531008E0
7,668073710E-1	1,004985496E-1	-4,307080805E-2	9,980463028E0	9,981061933E0
7,680034120E-1	6,699903309E-2	-3,349951655E-2	9,966106415E0	9,966387919E0
7,691994540E-1	1,674975827E-2	-2,153540403E-2	9,956535339E0	9,956572718E0
7,703954960E-1	-1,914258115E-2	-1,196411345E-2	9,949356079E0	9,949381688E0
7,715915370E-1	-3,349951655E-2	1,196411345E-2	9,946963310E0	9,947026915E0
7,727875790E-1	-3,828516230E-2	3,110669367E-2	9,927821159E0	9,927943712E0
7,739836210E-1	-4,307080805E-2	4,307080805E-2	9,911071777E0	9,911258950E0
7,751796620E-1	-6,460621208E-2	5,264209956E-2	9,903892517E0	9,904243138E0
7,763757040E-1	-7,657032460E-2	5,024927482E-2	9,884750366E0	9,885174647E0
7,775717460E-1	-7,178468257E-2	5,264209956E-2	9,851250648E0	9,851652834E0
7,787677350E-1	-7,178468257E-2	5,742774159E-2	9,815358162E0	9,815788651E0
7,799637770E-1	-6,221338734E-2	5,503492057E-2	9,793823242E0	9,794175465E0
7,811598710E-1	-3,828516230E-2	5,742774159E-2	9,781859398E0	9,782102891E0
7,823559120E-1	-3,110669367E-2	5,264209956E-2	9,767501831E0	9,767693220E0
7,835519020E-1	-2,871387079E-2	3,589234129E-2	9,753145218E0	9,753253528E0
7,847479440E-1	-1,435693540E-2	1,435693540E-2	9,731609344E0	9,731630525E0
7,859439850E-1	-4,785645287E-3	7,178467698E-3	9,712467194E0	9,712471025E0
7,871400270E-1	-4,785645287E-3	1,435693540E-2	9,700503349E0	9,700515154E0
7,883360690E-1	-9,571290575E-3	0,000000000E0	9,702896118E0	9,702900839E0
7,895321100E-1	-9,571290575E-3	-2,632104978E-2	9,710074425E0	9,710114816E0
7,907281520E-1	-1,435693540E-2	-4,067798331E-2	9,707681656E0	9,707777498E0
7,919241940E-1	-2,392822644E-3	-5,264209956E-2	9,714859962E0	9,715002882E0
7,931202350E-1	7,178467698E-3	-6,699903309E-2	9,726823807E0	9,727057200E0
7,943162770E-1	2,392822644E-3	-6,460621208E-2	9,748359680E0	9,748574057E0
7,955123190E-1	-4,785645287E-3	-5,982056633E-2	9,765109062E0	9,765293462E0
7,967083600E-1	2,392822644E-3	-5,742774159E-2	9,777072906E0	9,777241855E0
7,979044020E-1	2,632104978E-2	-4,785645381E-2	9,793823242E0	9,793975533E0
7,991004440E-1	4,307080805E-2	-5,264209956E-2	9,817750931E0	9,817986536E0
8,002964850E-1	4,785645381E-2	-4,546362907E-2	9,844072342E0	9,844293649E0
8,014925270E-1	6,221338734E-2	-3,110669367E-2	9,863214493E0	9,863459751E0
8,026885690E-1	7,178468257E-2	-1,914258115E-2	9,875179291E0	9,875458749E0
8,038846100E-1	8,374879509E-2	-7,178467698E-3	9,887143135E0	9,887500431E0
8,050806520E-1	1,028913707E-1	2,392822644E-3	9,906285286E0	9,906819900E0
8,062766940E-1	1,244267747E-1	1,435693540E-2	9,923035622E0	9,923826081E0
8,074727350E-1	1,555334777E-1	3,828516230E-2	9,939785004E0	9,941075512E0
8,086687770E-1	1,914258152E-1	6,221338734E-2	9,963713646E0	9,965746533E0
8,098648190E-1	2,273181528E-1	7,657032460E-2	9,973284721E0	9,976168838E0
8,110608600E-1	2,560320199E-1	8,614161611E-2	9,980463028E0	9,984118140E0
8,122569020E-1	2,751746178E-1	1,004985496E-1	9,994820595E0	9,999112948E0
8,134529440E-1	2,943171859E-1	1,052841991E-1	1,001156998E1	1,001644851E1
8,146489850E-1	3,110669553E-1	1,004985496E-1	1,002353382E1	1,002886299E1
8,158450270E-1	3,158525825E-1	1,052841991E-1	1,003789139E1	1,004341133E1
8,170410690E-1	3,158525825E-1	1,196411327E-1	1,004985523E1	1,005552918E1
8,182371100E-1	3,326023519E-1	1,339980662E-1	1,005703354E1	1,006342404E1
8,194331520E-1	3,493520916E-1	1,339980662E-1	1,005942631E1	1,006638267E1
8,206291940E-1	3,541377485E-1	1,292124242E-1	1,007378292E1	1,008083388E1
8,218252350E-1	3,613162339E-1	1,220339537E-1	1,008335495E1	1,009056434E1
8,230212770E-1	3,565305769E-1	1,244267747E-1	1,007617569E1	1,008324911E1
8,242173190E-1	3,469592929E-1	1,387837082E-1	1,006421185E1	1,007114699E1
8,254133600E-1	3,493520916E-1	1,483550072E-1	1,006899738E1	1,007614829E1
8,266094020E-1	3,493520916E-1	1,531406492E-1	1,007378292E1	1,008100200E1
8,278054440E-1	3,493520916E-1	1,627119333E-1	1,005224800E1	1,005963279E1
8,290014850E-1	3,421736360E-1	1,674975902E-1	1,003789139E1	1,004511830E1
8,301975270E-1	3,373879790E-1	1,579262912E-1	1,003071213E1	1,003762707E1
8,313935690E-1	3,278166950E-1	1,483550072E-1	1,002592659E1	1,003238142E1
8,325896100E-1	3,086741269E-1	1,411765367E-1	1,002353382E1	1,002927918E1
8,337856000E-1	2,895315289E-1	1,435693651E-1	1,001635551E1	1,002156766E1
8,349816410E-1	2,847459018E-1	1,435693651E-1	9,997213364E0	1,000229811E1
8,361776830E-1	2,799602449E-1	1,268195957E-1	9,987641335E0	9,992369107E0
8,373737770E-1	2,679961324E-1	1,076770201E-1	9,985248566E0	9,989424667E0
8,385697660E-1	2,464607358E-1	1,028913707E-1	9,985248566E0	9,988819672E0
8,397658080E-1	2,273181528E-1	9,092725813E-2	9,987641335E0	9,990641658E0
8,409618500E-1	2,153540403E-1	7,178468257E-2	9,980463028E0	9,983044258E0
8,421578910E-1	2,081755698E-1	6,221338734E-2	9,973284721E0	9,975651142E0
8,433539330E-1	2,009970993E-1	4,785645381E-2	9,975677490E0	9,977816969E0
8,445499750E-1	1,986042857E-1	3,589234129E-2	9,980463028E0	9,982503402E0
8,457460160E-1	1,842473447E-1	3,589234129E-2	9,987641335E0	9,989405126E0
8,469420580E-1	1,627119333E-1	2,632104978E-2	9,987641335E0	9,989001321E0
8,481381000E-1	1,507478207E-1	9,571290575E-3	9,966106415E0	9,967251055E0
8,493341410E-1	1,435693651E-1	2,392822644E-3	9,944570541E0	9,945607128E0
8,505301830E-1	1,339980662E-1	-4,785645287E-3	9,932606697E0	9,933511674E0
8,517262250E-1	1,316052526E-1	-2,153540403E-2	9,930213928E0	9,931109323E0
8,529222660E-1	1,220339537E-1	-3,589234129E-2	9,939785004E0	9,940598899E0
8,541183080E-1	1,100698411E-1	-4,546362907E-2	9,946963310E0	9,947676181E0
8,553143500E-1	9,571290761E-2	-5,742774159E-2	9,946963310E0	9,947589557E0
8,565103910E-1	8,614161611E-2	-7,417750359E-2	9,944570541E0	9,945220256E0
8,577064330E-1	8,135596663E-2	-9,092725813E-2	9,946963310E0	9,947711579E0
8,589024750E-1	7,657032460E-2	-9,332008660E-2	9,961320877E0	9,962052262E0
8,600985160E-1	6,699903309E-2	-1,004985496E-1	9,980463028E0	9,981193871E0
8,612945580E-1	6,221338734E-2	-1,124626622E-1	9,970891953E0	9,971720247E0
8,624906000E-1	6,221338734E-2	-1,172483116E-1	9,956535339E0	9,957420029E0
8,636866410E-1	5,264209956E-2	-1,196411327E-1	9,944570541E0	9,945429525E0
8,648826830E-1	4,067798331E-2	-1,172483116E-1	9,934999466E0	9,935774567E0
8,660787250E-1	4,307080805E-2	-1,268195957E-1	9,934999466E0	9,935902208E0
8,672747660E-1	5,982056633E-2	-1,411765367E-1	9,932606697E0	9,933790068E0
8,684708080E-1	8,374879509E-2	-1,387837082E-1	9,934999466E0	9,936321712E0
8,696668500E-1	1,028913707E-1	-1,435693651E-1	9,937392235E0	9,938961879E0
8,708628910E-1	1,172483116E-1	-1,531406492E-1	9,934999466E0	9,936871420E0
8,720589330E-1	1,292124242E-1	-1,555334777E-1	9,934999466E0	9,937056954E0
8,732549750E-1	1,387837082E-1	-1,579262912E-1	9,944570541E0	9,946792693E0
8,744510160E-1	1,531406492E-1	-1,579262912E-1	9,963713646E0	9,966141801E0
8,756470580E-1	1,579262912E-1	-1,579262912E-1	9,990034103E0	9,992530351E0
8,768431000E-1	1,651047617E-1	-1,627119333E-1	1,000439167E1	1,000707687E1
8,780391410E-1	1,746760458E-1	-1,674975902E-1	1,001396275E1	1,001688659E1
8,792351830E-1	1,818545163E-1	-1,531406492E-1	1,002592659E1	1,002874504E1
8,804312250E-1	1,986042857E-1	-1,244267747E-1	1,003549862E1	1,003823482E1
8,816272660E-1	2,033899277E-1	-9,332008660E-2	1,003549862E1	1,003799326E1
8,828233080E-1	2,033899277E-1	-5,982056633E-2	1,001874828E1	1,002099113E1
8,840193500E-1	2,057827413E-1	-3,828516230E-2	1,001156998E1	1,001375782E1
8,852153910E-1	2,057827413E-1	-3,828516230E-2	1,001874828E1	1,002093456E1
8,864114330E-1	1,890329868E-1	-3,589234129E-2	1,001874828E1	1,002059574E1
8,876074230E-1	1,722832322E-1	-3,349951655E-2	1,000199890E1	1,000353866E1
8,888034640E-1	1,698904037E-1	-3,828516230E-2	9,973284721E0	9,974805093E0
8,899995060E-1	1,651047617E-1	-3,828516230E-2	9,949356079E0	9,950799552E0
8,911956000E-1	1,459621787E-1	-2,871387079E-2	9,937392235E0	9,938505616E0
8,923915890E-1	1,220339537E-1	-1,914258115E-2	9,925428391E0	9,926197029E0
8,935876310E-1	1,076770201E-1	-9,571290575E-3	9,915857315E0	9,916446553E0
8,947836730E-1	1,004985496E-1	-2,392822644E-3	9,901499748E0	9,902010046E0
8,959797140E-1	9,332008660E-2	1,674975827E-2	9,891928673E0	9,892383032E0
8,971757560E-1	9,332008660E-2	3,828516230E-2	9,882357597E0	9,882872359E0
8,983717980E-1	9,092725813E-2	6,460621208E-2	9,870393753E0	9,871023988E0
8,995678390E-1	8,853443712E-2	1,028913707E-1	9,865608215E0	9,866541970E0
9,007638810E-1	9,810572863E-2	1,268195957E-1	9,844072342E0	9,845378013E0
9,019599230E-1	1,220339537E-1	1,483550072E-1	9,817750931E0	9,819630076E0
9,031559640E-1	1,435693651E-1	1,794617027E-1	9,812965393E0	9,815656293E0
9,043520060E-1	1,603191197E-1	1,986042857E-1	9,793823242E0	9,797148543E0
9,055480480E-1	1,770688742E-1	2,081755698E-1	9,762716293E0	9,766540835E0
9,067440890E-1	1,818545163E-1	2,129612118E-1	9,743574142E0	9,747597684E0
9,079401310E-1	1,914258152E-1	2,177468538E-1	9,729216576E0	9,733535468E0
9,091361730E-1	2,081755698E-1	2,297109663E-1	9,719645500E0	9,724588055E0
9,103322140E-1	2,225325108E-1	2,392822653E-1	9,710074425E0	9,715571113E0
9,115282560E-1	2,440679073E-1	2,273181528E-1	9,714859962E0	9,720583664E0
9,127242980E-1	2,608176768E-1	2,153540403E-1	9,722038269E0	9,727920195E0
9,139203390E-1	2,727817893E-1	2,081755698E-1	9,726823807E0	9,732874619E0
9,151163810E-1	2,775674164E-1	1,890329868E-1	9,729216576E0	9,735010648E0
9,163124230E-1	2,775674164E-1	1,627119333E-1	9,734002113E0	9,739318045E0
9,175084640E-1	2,679961324E-1	1,316052526E-1	9,757930756E0	9,762497350E0
9,187045060E-1	2,560320199E-1	9,810572863E-2	9,781859398E0	9,785701324E0
9,199005480E-1	2,416750938E-1	7,657032460E-2	9,798608780E0	9,801887772E0
9,210965890E-1	2,392822653E-1	6,460621208E-2	9,808179855E0	9,811310924E0
9,222926310E-1	2,321037948E-1	5,264209956E-2	9,810572624E0	9,813459053E0
9,234886730E-1	2,225325108E-1	3,828516230E-2	9,812965393E0	9,815562963E0
9,246847140E-1	2,273181528E-1	2,392822690E-2	9,820143700E0	9,822803489E0
9,258807560E-1	2,321037948E-1	1,435693540E-2	9,817750931E0	9,820504653E0
9,270767980E-1	2,249253243E-1	4,785645287E-3	9,815358162E0	9,817936145E0
9,282728390E-1	2,081755698E-1	-1,435693540E-2	9,810572624E0	9,812791570E0
9,294688810E-1	1,938186288E-1	-3,828516230E-2	9,810572624E0	9,812561675E0
9,306649230E-1	1,842473447E-1	-4,785645381E-2	9,812965393E0	9,814811620E0
9,318609640E-1	1,794617027E-1	-5,024927482E-2	9,820143700E0	9,821911920E0
9,330570060E-1	1,722832322E-1	-5,503492057E-2	9,834501266E0	9,836164167E0
9,342530480E-1	1,531406492E-1	-5,982056633E-2	9,834501266E0	9,835875442E0
9,354490890E-1	1,411765367E-1	-5,503492057E-2	9,839286804E0	9,840453469E0
9,366451310E-1	1,459621787E-1	-3,828516230E-2	9,839286804E0	9,840443868E0
9,378411730E-1	1,627119333E-1	-2,392822690E-2	9,834501266E0	9,835876315E0
9,390372140E-1	1,794617027E-1	-2,153540403E-2	9,827322960E0	9,828985036E0
9,402332040E-1	1,986042857E-1	-1,914258115E-2	9,822537422E0	9,824563680E0
9,414292460E-1	2,201396823E-1	-2,153540403E-2	9,824930191E0	9,827419728E0
9,426252870E-1	2,344966233E-1	-2,392822690E-2	9,812965393E0	9,815795996E0
9,438213290E-1	2,392822653E-1	-1,914258115E-2	9,789037704E0	9,791980475E0
9,450173710E-1	2,464607358E-1	-2,153540403E-2	9,772287369E0	9,775418512E0
9,462134120E-1	2,536391914E-1	-2,153540403E-2	9,753145218E0	9,756466484E0
9,474094540E-1	2,512463629E-1	-2,153540403E-2	9,736394882E0	9,739659841E0
9,486054960E-1	2,416750938E-1	-2,392822690E-2	9,736394882E0	9,739423223E0
9,498015370E-1	2,297109663E-1	-2,632104978E-2	9,731609344E0	9,734355673E0
9,509975790E-1	2,225325108E-1	-3,110669367E-2	9,717252731E0	9,719850255E0
9,521936210E-1	2,177468538E-1	-3,110669367E-2	9,714859962E0	9,717349711E0
9,533896620E-1	2,033899277E-1	-2,871387079E-2	9,712467194E0	9,714639002E0
9,545857040E-1	1,794617027E-1	-2,392822690E-2	9,710074425E0	9,711762167E0
9,557817460E-1	1,603191197E-1	-9,571290575E-3	9,714859962E0	9,716187417E0
9,569777870E-1	1,483550072E-1	-4,785645287E-3	9,726823807E0	9,727956285E0
9,581738290E-1	1,244267747E-1	4,785645287E-3	9,738788605E0	9,739584612E0
9,593698710E-1	1,004985496E-1	2,392822690E-2	9,753145218E0	9,753692335E0
9,605659120E-1	9,092725813E-2	4,546362907E-2	9,767501831E0	9,768030852E0
9,617619540E-1	9,332008660E-2	5,742774159E-2	9,774680138E0	9,775294286E0
9,629579960E-1	8,614161611E-2	6,221338734E-2	9,762716293E0	9,763294542E0
9,641540370E-1	8,135596663E-2	5,742774159E-2	9,741181374E0	9,741690371E0
9,653500790E-1	8,853443712E-2	5,264209956E-2	9,707681656E0	9,708228091E0
9,665461210E-1	1,052841991E-1	6,699903309E-2	9,676574707E0	9,677379382E0
9,677421620E-1	1,196411327E-1	7,178468257E-2	9,652647018E0	9,653655344E0
9,689382040E-1	1,100698411E-1	6,699903309E-2	9,621540070E0	9,622402899E0
9,701342460E-1	1,196411327E-1	6,939185411E-2	9,592825890E0	9,593822897E0
9,713302870E-1	1,411765367E-1	6,939185411E-2	9,568898201E0	9,570191159E0
9,725263290E-1	1,459621787E-1	5,742774159E-2	9,542576790E0	9,543865815E0
9,737223710E-1	1,483550072E-1	4,785645381E-2	9,521040916E0	9,522316923E0
9,749184120E-1	1,579262912E-1	5,024927482E-2	9,506684303E0	9,508128740E0
9,761144540E-1	1,627119333E-1	5,982056633E-2	9,499505997E0	9,501087720E0
9,773104960E-1	1,746760458E-1	5,982056633E-2	9,489934921E0	9,491730876E0
9,785065370E-1	1,842473447E-1	5,503492057E-2	9,477970123E0	9,479920547E0
9,797025790E-1	1,770688742E-1	5,503492057E-2	9,463613510E0	9,465429884E0
9,808986210E-1	1,818545163E-1	5,503492057E-2	9,439684868E0	9,441596809E0
9,820946620E-1	1,962114573E-1	5,264209956E-2	9,427721024E0	9,429909534E0
9,832907040E-1	1,938186288E-1	5,742774159E-2	9,430113792E0	9,432280199E0
9,844867460E-1	1,722832322E-1	5,982056633E-2	9,432506561E0	9,434269449E0
9,856827350E-1	1,435693651E-1	6,221338734E-2	9,432506561E0	9,433804254E0
9,868788290E-1	1,268195957E-1	5,982056633E-2	9,432506561E0	9,433548735E0
9,880748710E-1	1,220339537E-1	6,221338734E-2	9,432506561E0	9,433501090E0
9,892709120E-1	1,124626622E-1	7,896314561E-2	9,432506561E0	9,433507463E0
9,904669020E-1	9,810572863E-2	8,853443712E-2	9,427721024E0	9,428647134E0
9,916629440E-1	7,896314561E-2	9,332008660E-2	9,437292099E0	9,438083809E0
9,928589850E-1	5,264209956E-2	1,028913707E-1	9,434899330E0	9,435607198E0
9,940550270E-1	3,110669367E-2	1,028913707E-1	9,432506561E0	9,433119012E0
9,952510690E-1	2,392822690E-2	8,374879509E-2	9,437292099E0	9,437694029E0
9,964471100E-1	2,153540403E-2	7,896314561E-2	9,439684868E0	9,440039690E0
9,976431520E-1	1,914258115E-2	8,614161611E-2	9,442078590E0	9,442490928E0
9,988391940E-1	2,871387079E-2	7,657032460E-2	9,451649666E0	9,452003433E0
1,000035235E0	2,632104978E-2	6,699903309E-2	9,449256897E0	9,449531077E0
1,001231277E0	2,153540403E-2	6,221338734E-2	9,442078590E0	9,442308107E0
1,002427319E0	3,828516230E-2	5,264209956E-2	9,449256897E0	9,449481089E0
1,003623360E0	6,221338734E-2	4,307080805E-2	9,458827972E0	9,459130627E0
1,004819402E0	8,853443712E-2	2,153540403E-2	9,463613510E0	9,464052134E0
1,006015444E0	9,571290761E-2	9,571290575E-3	9,475577354E0	9,476065574E0
1,007211485E0	8,374879509E-2	1,196411345E-2	9,487542152E0	9,487919324E0
1,008407527E0	8,374879509E-2	1,435693540E-2	9,504291534E0	9,504671354E0
1,009603569E0	9,092725813E-2	2,392822690E-2	9,533005714E0	9,533469373E0
1,010799610E0	9,571290761E-2	4,307080805E-2	9,556933403E0	9,557509724E0
1,011995652E0	1,028913707E-1	5,503492057E-2	9,573683739E0	9,574394801E0
1,013191694E0	1,148554832E-1	5,503492057E-2	9,600004196E0	9,600848983E0
1,014387735E0	1,220339537E-1	5,982056633E-2	9,631111145E0	9,632070010E0
1,015583777E0	1,316052526E-1	6,699903309E-2	9,647860527E0	9,648990702E0
1,016779819E0	1,507478207E-1	7,896314561E-2	9,674181938E0	9,675678594E0
1,017975860E0	1,770688742E-1	9,810572863E-2	9,700503349E0	9,702615284E0
1,019171902E0	1,914258152E-1	1,100698411E-1	9,724431038E0	9,726937762E0
1,020367944E0	1,890329868E-1	1,172483116E-1	9,750752449E0	9,753289392E0
1,021563985E0	1,866401732E-1	1,076770201E-1	9,769894600E0	9,772270432E0
1,022760027E0	1,986042857E-1	8,614161611E-2	9,777072906E0	9,779469242E0
1,023956069E0	2,081755698E-1	7,657032460E-2	9,793823242E0	9,796334712E0
1,025152110E0	2,297109663E-1	5,742774159E-2	9,817750931E0	9,820605807E0
1,026348152E0	2,560320199E-1	4,067798331E-2	9,836894035E0	9,840309515E0
1,027544194E0	2,727817893E-1	2,871387079E-2	9,853643417E0	9,857460271E0
1,028740235E0	2,967100143E-1	1,674975827E-2	9,868000984E0	9,872474908E0
1,029936277E0	3,182454109E-1	-4,785645287E-3	9,875179291E0	9,880307134E0
1,031132266E0	3,278166950E-1	-1,914258115E-2	9,882357597E0	9,887811786E0
1,032328360E0	3,230310678E-1	-2,153540403E-2	9,896714211E0	9,902008130E0
1,033524402E0	3,326023519E-1	-2,153540403E-2	9,901499748E0	9,907107820E0
1,034720391E0	3,541377485E-1	-1,674975827E-2	9,906285286E0	9,912627415E0
1,035916433E0	3,804588020E-1	-1,674975827E-2	9,915857315E0	9,923167627E0
1,037112527E0	3,924229145E-1	-7,178467698E-3	9,923035622E0	9,930794692E0
1,038308516E0	3,996013701E-1	9,571290575E-3	9,927821159E0	9,935864625E0
1,039504558E0	3,972085714E-1	2,153540403E-2	9,923035622E0	9,931005708E0
1,040700600E0	3,948157430E-1	3,110669367E-2	9,920642853E0	9,928544793E0
1,041896641E0	4,043870270E-1	3,349951655E-2	9,913464546E0	9,921765488E0
1,043092683E0	4,187439680E-1	4,307080805E-2	9,894321442E0	9,903272106E0
1,044288725E0	4,163511395E-1	5,264209956E-2	9,875179291E0	9,884092547E0
1,045484766E0	4,019941986E-1	4,785645381E-2	9,863214493E0	9,871519118E0
1,046680808E0	3,924229145E-1	3,828516230E-2	9,858428955E0	9,866310504E0
1,047876850E0	3,876372576E-1	4,307080805E-2	9,851250648E0	9,858968358E0
1,049072891E0	3,948157430E-1	5,264209956E-2	9,839286804E0	9,847345606E0
1,050268933E0	3,972085714E-1	5,024927482E-2	9,822537422E0	9,830693823E0
1,051464975E0	3,756731451E-1	4,785645381E-2	9,793823242E0	9,801142497E0
1,052661016E0	3,661018610E-1	5,982056633E-2	9,779465675E0	9,786498759E0
1,053857058E0	3,661018610E-1	7,417750359E-2	9,765109062E0	9,772250911E0
1,055053100E0	3,661018610E-1	8,135596663E-2	9,741181374E0	9,748398018E0
1,056249141E0	3,589234054E-1	8,614161611E-2	9,724431038E0	9,731433882E0
1,057445183E0	3,469592929E-1	1,004985496E-1	9,705288887E0	9,712008705E0
1,058641225E0	3,493520916E-1	1,292124242E-1	9,695717812E0	9,702870020E0
1,059837266E0	3,397808075E-1	1,555334777E-1	9,678967476E0	9,686178455E0
1,061033308E0	3,302095234E-1	1,722832322E-1	9,659825325E0	9,667002904E0
1,062229350E0	3,206382394E-1	1,770688742E-1	9,652647018E0	9,659594025E0
1,063425391E0	2,943171859E-1	1,722832322E-1	9,647860527E0	9,653886102E0
1,064621433E0	2,679961324E-1	1,770688742E-1	9,635896683E0	9,641248892E0
1,065817475E0	2,512463629E-1	1,866401732E-1	9,621540070E0	9,626629348E0
1,067013516E0	2,464607358E-1	1,842473447E-1	9,597611427E0	9,602543157E0
1,068209558E0	2,488535494E-1	1,722832322E-1	9,576076508E0	9,580858567E0
1,069405600E0	2,488535494E-1	1,698904037E-1	9,568898201E0	9,573641085E0
1,070601641E0	2,297109663E-1	1,579262912E-1	9,571290970E0	9,575349533E0
1,071797683E0	2,081755698E-1	1,483550072E-1	9,564111710E0	9,567527323E0
1,072993725E0	1,938186288E-1	1,459621787E-1	9,559326172E0	9,562404900E0
1,074189766E0	1,770688742E-1	1,555334777E-1	9,549755096E0	9,552662794E0
1,075385808E0	1,603191197E-1	1,674975902E-1	9,530612946E0	9,533432791E0
1,076581850E0	1,459621787E-1	1,651047617E-1	9,509077072E0	9,511630318E0
1,077777891E0	1,292124242E-1	1,627119333E-1	9,506684303E0	9,508954594E0
1,078973933E0	1,148554832E-1	1,674975902E-1	9,509077072E0	9,511245659E0
1,080169923E0	1,028913707E-1	1,866401732E-1	9,506684303E0	9,509072911E0
1,081365964E0	1,028913707E-1	2,033899277E-1	9,494720459E0	9,497456012E0
1,082562006E0	9,332008660E-2	2,033899277E-1	9,487542152E0	9,490180830E0
1,083758048E0	7,417750359E-2	1,986042857E-1	9,492327690E0	9,494694884E0
1,084954089E0	6,699903309E-2	2,033899277E-1	9,489934921E0	9,492350665E0
1,086150131E0	7,896314561E-2	1,986042857E-1	9,487542152E0	9,489949153E0
1,087346173E0	9,332008660E-2	1,818545163E-1	9,494720459E0	9,496920359E0
1,088542214E0	9,332008660E-2	1,770688742E-1	9,497113228E0	9,499222162E0
1,089738256E0	8,853443712E-2	1,818545163E-1	9,492327690E0	9,494482313E0
1,090934298E0	8,374879509E-2	2,033899277E-1	9,487542152E0	9,490091539E0
1,092130339E0	7,417750359E-2	2,464607358E-1	9,458827972E0	9,462329090E0
1,093326381E0	6,221338734E-2	2,775674164E-1	9,427721024E0	9,432011338E0
1,094522423E0	6,699903309E-2	2,943171859E-1	9,425328255E0	9,430160348E0
1,095718464E0	7,896314561E-2	2,871387303E-1	9,466006279E0	9,470689452E0
1,096914506E0	8,135596663E-2	2,512463629E-1	9,542576790E0	9,546230425E0
1,098110548E0	9,332008660E-2	2,033899277E-1	9,628718376E0	9,631318376E0
1,099306589E0	1,148554832E-1	1,483550072E-1	9,710074425E0	9,711886857E0
1,100502631E0	1,268195957E-1	8,853443712E-2	9,786644936E0	9,787867012E0
1,101698673E0	1,268195957E-1	3,828516230E-2	9,858428955E0	9,859318964E0
1,102894714E0	1,244267747E-1	0,000000000E0	9,925428391E0	9,926208277E0
1,104090756E0	1,244267747E-1	-4,067798331E-2	9,980463028E0	9,981321504E0
1,105286798E0	1,268195957E-1	-7,657032460E-2	1,002831936E1	1,002941351E1
1,106482839E0	1,220339537E-1	-9,332008660E-2	1,007617569E1	1,007734675E1
1,107678881E0	1,052841991E-1	-9,332008660E-2	1,010249710E1	1,010347668E1
1,108874923E0	8,374879509E-2	-9,092725813E-2	1,010010433E1	1,010086081E1
1,110070964E0	6,221338734E-2	-7,896314561E-2	1,009292603E1	1,009342664E1
1,111267006E0	5,742774159E-2	-5,503492057E-2	1,008574772E1	1,008606136E1
1,112463048E0	5,982056633E-2	-2,632104978E-2	1,006899738E1	1,006920948E1
1,113659089E0	4,785645381E-2	2,392822644E-3	1,004028416E1	1,004039849E1
1,114855131E0	5,264209956E-2	3,828516230E-2	9,999606133E0	9,999817986E0
1,116051173E0	5,982056633E-2	6,460621208E-2	9,958928108E0	9,959317322E0
1,117247214E0	6,221338734E-2	8,853443712E-2	9,925428391E0	9,926018214E0
1,118443204E0	6,699903309E-2	1,100698411E-1	9,908679008E0	9,909516837E0
1,119639298E0	6,460621208E-2	1,268195957E-1	9,899106979E0	9,900130108E0
1,120835339E0	6,460621208E-2	1,483550072E-1	9,889535904E0	9,890859597E0
1,122031381E0	6,460621208E-2	1,651047617E-1	9,889535904E0	9,891125009E0
1,123227371E0	7,896314561E-2	1,746760458E-1	9,896714211E0	9,898570557E0
1,124423412E0	1,004985496E-1	1,770688742E-1	9,906285286E0	9,908377340E0
1,125619454E0	1,076770201E-1	1,770688742E-1	9,930213928E0	9,932376170E0
1,126815496E0	1,100698411E-1	1,794617027E-1	9,958928108E0	9,961153093E0
1,128011537E0	1,172483116E-1	2,081755698E-1	9,982855797E0	9,985714501E0
1,129207579E0	1,316052526E-1	2,273181528E-1	1,000678444E1	1,001023118E1
1,130403621E0	1,507478207E-1	2,297109663E-1	1,003310490E1	1,003686634E1
1,131599662E0	1,579262912E-1	2,344966233E-1	1,004506969E1	1,004904744E1
1,132795704E0	1,579262912E-1	2,464607358E-1	1,005942631E1	1,006368428E1
1,133991746E0	1,674975902E-1	2,584248483E-1	1,008335495E1	1,008805660E1
1,135187787E0	1,722832322E-1	2,656033039E-1	1,010488987E1	1,010984797E1
1,136383829E0	1,866401732E-1	2,560320199E-1	1,012642574E1	1,013138121E1
1,137579871E0	2,057827413E-1	2,608176768E-1	1,015513897E1	1,016057183E1
1,138775912E0	2,201396823E-1	2,727817893E-1	1,017906761E1	1,018510132E1
1,139971954E0	2,344966233E-1	2,751746178E-1	1,020060253E1	1,020700748E1
1,141167996E0	2,536391914E-1	2,775674164E-1	1,021735287E1	1,022426898E1
1,142364037E0	2,799602449E-1	2,775674164E-1	1,022453117E1	1,023212877E1
1,143560079E0	2,895315289E-1	2,823530734E-1	1,021256733E1	1,022057157E1
1,144756121E0	3,110669553E-1	2,895315289E-1	1,018385315E1	1,019271584E1
1,145952162E0	3,373879790E-1	2,775674164E-1	1,015753174E1	1,016692310E1
1,147148204E0	3,445664644E-1	2,608176768E-1	1,014078236E1	1,014998614E1
1,148344246E0	3,373879790E-1	2,488535494E-1	1,012403297E1	1,013270953E1
1,149540287E0	3,349951804E-1	2,440679073E-1	1,010728264E1	1,011577744E1
1,150736329E0	3,349951804E-1	2,392822653E-1	1,010010433E1	1,010849075E1
1,151932371E0	3,373879790E-1	2,225325108E-1	1,009771156E1	1,010579686E1
1,153128412E0	3,421736360E-1	2,153540403E-1	1,010488987E1	1,011297481E1
1,154324454E0	3,421736360E-1	2,225325108E-1	1,010967541E1	1,011791186E1
1,155520496E0	3,373879790E-1	2,273181528E-1	1,011206818E1	1,012024837E1
1,156716537E0	3,421736360E-1	2,129612118E-1	1,011685371E1	1,012487849E1
1,157912579E0	3,278166950E-1	2,105683982E-1	1,012164021E1	1,012913635E1
1,159108621E0	2,991028428E-1	2,201396823E-1	1,012164021E1	1,012845124E1
1,160304662E0	2,895315289E-1	2,225325108E-1	1,011446095E1	1,012105081E1
1,161500704E0	2,991028428E-1	2,153540403E-1	1,010488987E1	1,011160913E1
1,162696746E0	3,086741269E-1	2,129612118E-1	1,010488987E1	1,011184610E1
1,163892787E0	3,110669553E-1	2,177468538E-1	1,010967541E1	1,011680351E1
1,165088777E0	3,254238665E-1	2,201396823E-1	1,010488987E1	1,011252498E1
1,166284819E0	3,373879790E-1	2,249253243E-1	1,008814049E1	1,009628647E1
1,167480860E0	3,469592929E-1	2,273181528E-1	1,006899738E1	1,007753753E1
1,168676902E0	3,445664644E-1	2,321037948E-1	1,004985523E1	1,005843867E1
1,169872944E0	3,397808075E-1	2,392822653E-1	1,002831936E1	1,003692663E1
1,171068985E0	3,302095234E-1	2,488535494E-1	9,997213364E0	1,000576041E1
1,172265027E0	3,134597540E-1	2,584248483E-1	9,963713646E0	9,971992280E0
1,173461069E0	2,919243574E-1	2,584248483E-1	9,920642853E0	9,928300854E0
1,174657110E0	2,656033039E-1	2,536391914E-1	9,882357597E0	9,889179422E0
1,175853152E0	2,416750938E-1	2,584248483E-1	9,865608215E0	9,871950958E0
1,177049194E0	2,177468538E-1	2,632105052E-1	9,851250648E0	9,857171643E0
1,178245235E0	1,842473447E-1	2,560320199E-1	9,832108498E0	9,837167122E0
1,179441277E0	1,459621787E-1	2,440679073E-1	9,808179855E0	9,812301778E0
1,180637319E0	1,220339537E-1	2,344966233E-1	9,779465675E0	9,783037864E0
1,181833360E0	1,076770201E-1	2,225325108E-1	9,753145218E0	9,756277810E0
1,183029402E0	8,614161611E-2	2,033899277E-1	9,731609344E0	9,734115690E0
1,184225444E0	6,221338734E-2	1,842473447E-1	9,724431038E0	9,726375306E0
1,185421485E0	4,307080805E-2	1,746760458E-1	9,707681656E0	9,709348585E0
1,186617527E0	2,153540403E-2	1,579262912E-1	9,686145782E0	9,687457076E0
1,187813569E0	4,785645287E-3	1,316052526E-1	9,667003632E0	9,667900602E0
1,189009610E0	-1,196411345E-2	1,172483116E-1	9,643074989E0	9,643795184E0
1,190205652E0	-2,153540403E-2	1,100698411E-1	9,626325607E0	9,626978957E0
1,191401694E0	-2,153540403E-2	1,004985496E-1	9,621540070E0	9,622089017E0
1,192597735E0	-2,392822690E-2	1,052841991E-1	9,628718376E0	9,629323698E0
1,193793777E0	-2,392822690E-2	1,028913707E-1	9,643074989E0	9,643653584E0
1,194989819E0	-2,153540403E-2	9,571290761E-2	9,657432556E0	9,657930850E0
1,196185860E0	-3,110669367E-2	9,810572863E-2	9,667003632E0	9,667551478E0
1,197381902E0	-4,785645381E-2	1,076770201E-1	9,683753014E0	9,684469888E0
1,198577944E0	-5,982056633E-2	1,220339537E-1	9,714859962E0	9,715810562E0
1,199773985E0	-6,939185411E-2	1,363908947E-1	9,743574142E0	9,744775768E0
1,200970027E0	-7,178468257E-2	1,555334777E-1	9,777072906E0	9,778573430E0
1,202166069E0	-7,417750359E-2	1,651047617E-1	9,798608780E0	9,800280399E0
1,203362110E0	-7,417750359E-2	1,698904037E-1	9,805787086E0	9,807539214E0
1,204558100E0	-8,374879509E-2	1,842473447E-1	9,810572624E0	9,812659994E0
1,205754141E0	-7,896314561E-2	1,866401732E-1	9,815358162E0	9,817450055E0
1,206950183E0	-6,221338734E-2	1,794617027E-1	9,810572624E0	9,812411132E0
1,208146277E0	-4,307080805E-2	1,674975902E-1	9,798608780E0	9,800134926E0
1,209342266E0	-9,571290575E-3	1,579262912E-1	9,779465675E0	9,780745433E0
1,210538308E0	2,871387079E-2	1,555334777E-1	9,769894600E0	9,771174732E0
1,211734350E0	5,503492057E-2	1,555334777E-1	9,765109062E0	9,766502675E0
1,212930391E0	7,417750359E-2	1,579262912E-1	9,765109062E0	9,766667703E0
1,214126433E0	9,810572863E-2	1,603191197E-1	9,779465675E0	9,781271689E0
1,215322475E0	1,244267747E-1	1,387837082E-1	9,801001549E0	9,802773806E0
1,216518516E0	1,531406492E-1	1,268195957E-1	9,820143700E0	9,822156461E0
1,217714558E0	1,914258152E-1	1,387837082E-1	9,839286804E0	9,842127289E0
1,218910600E0	2,153540403E-1	1,531406492E-1	9,870393753E0	9,873930436E0
1,220106641E0	2,321037948E-1	1,746760458E-1	9,913464546E0	9,917719657E0
1,221302683E0	2,560320199E-1	1,890329868E-1	9,970891953E0	9,975969737E0
1,222498725E0	2,751746178E-1	2,057827413E-1	1,002592659E1	1,003181298E1
1,223694766E0	2,847459018E-1	2,297109663E-1	1,007378292E1	1,008042408E1
1,224890808E0	2,919243574E-1	2,416750938E-1	1,011685371E1	1,012394961E1
1,226086850E0	2,991028428E-1	2,440679073E-1	1,014556789E1	1,015290991E1
1,227282891E0	3,014956415E-1	2,560320199E-1	1,017428207E1	1,018196777E1
1,228478933E0	3,230310678E-1	2,632105052E-1	1,020538902E1	1,021389220E1
1,229674975E0	3,565305769E-1	2,703889608E-1	1,022453117E1	1,023431786E1
1,230871016E0	3,804588020E-1	2,656033039E-1	1,022931671E1	1,023983469E1
1,232067058E0	3,948157430E-1	2,584248483E-1	1,022692394E1	1,023780427E1
1,233263100E0	4,091726840E-1	2,632105052E-1	1,021974564E1	1,023131971E1
1,234459141E0	4,187439680E-1	2,608176768E-1	1,020538902E1	1,021730578E1
1,235655183E0	4,211367965E-1	2,560320199E-1	1,018146038E1	1,019338237E1
1,236851225E0	4,235295951E-1	2,464607358E-1	1,014796066E1	1,015978473E1
1,238047266E0	4,283152521E-1	2,368894368E-1	1,010967541E1	1,012151705E1
1,239243308E0	4,498506486E-1	2,273181528E-1	1,006899738E1	1,008160441E1
1,240439350E0	4,642075896E-1	2,225325108E-1	1,003789139E1	1,005108317E1
1,241635391E0	4,689932466E-1	2,321037948E-1	1,002114105E1	1,003479421E1
1,242831433E0	4,594219327E-1	2,416750938E-1	1,000439167E1	1,001785047E1
1,244027475E0	4,402793646E-1	2,344966233E-1	1,000199890E1	1,001443042E1
1,245223464E0	4,426721931E-1	2,297109663E-1	1,001156998E1	1,002398420E1
1,246419506E0	4,570291340E-1	2,392822653E-1	1,000917721E1	1,002246277E1
1,247615548E0	4,522434771E-1	2,560320199E-1	1,000199890E1	1,001549093E1
1,248811589E0	4,378865361E-1	2,727817893E-1	9,985248566E0	9,998567069E0
1,250007631E0	4,115654826E-1	2,775674164E-1	9,963713646E0	9,976072345E0
1,251203673E0	3,900300860E-1	2,703889608E-1	9,944570541E0	9,955888555E0
1,252399714E0	3,780659735E-1	2,727817893E-1	9,920642853E0	9,931590930E0
1,253595756E0	3,708875179E-1	2,679961324E-1	9,899106979E0	9,909677011E0
1,254791798E0	3,661018610E-1	2,560320199E-1	9,875179291E0	9,885279409E0
1,255987839E0	3,637090325E-1	2,416750938E-1	9,846465111E0	9,856143581E0
1,257183881E0	3,541377485E-1	2,368894368E-1	9,810572624E0	9,819820027E0
1,258379923E0	3,278166950E-1	2,297109663E-1	9,777072906E0	9,785263693E0
1,259575964E0	2,943171859E-1	2,201396823E-1	9,736394882E0	9,743329482E0
1,260772006E0	2,679961324E-1	2,177468538E-1	9,693324089E0	9,699472538E0
1,261968048E0	2,512463629E-1	2,201396823E-1	9,657432556E0	9,663208049E0
1,263164089E0	2,129612118E-1	2,129612118E-1	9,628718376E0	9,633427351E0
1,264360131E0	1,842473447E-1	2,105683982E-1	9,592825890E0	9,596905474E0
1,265556173E0	1,698904037E-1	1,962114573E-1	9,561718941E0	9,565240759E0
1,266752214E0	1,459621787E-1	1,842473447E-1	9,533005714E0	9,535903208E0
1,267948256E0	1,411765367E-1	1,842473447E-1	9,506684303E0	9,509517566E0
1,269144298E0	1,411765367E-1	1,794617027E-1	9,487542152E0	9,490289427E0
1,270340339E0	1,244267747E-1	1,722832322E-1	9,463613510E0	9,465999377E0
1,271536381E0	1,100698411E-1	1,651047617E-1	9,449256897E0	9,451340162E0
1,272732423E0	1,076770201E-1	1,555334777E-1	9,451649666E0	9,453542532E0
1,273928464E0	1,076770201E-1	1,603191197E-1	9,446864128E0	9,448837940E0
1,275124506E0	1,028913707E-1	1,627119333E-1	9,432506561E0	9,434470936E0
1,276320548E0	9,332008660E-2	1,603191197E-1	9,425328255E0	9,427153524E0
1,277516589E0	1,076770201E-1	1,627119333E-1	9,422935486E0	9,424955315E0
1,278712631E0	1,244267747E-1	1,579262912E-1	9,410971642E0	9,413119035E0
1,279908673E0	1,268195957E-1	1,603191197E-1	9,384650230E0	9,386876231E0
1,281104714E0	1,339980662E-1	1,698904037E-1	9,355937004E0	9,358438730E0
1,282300756E0	1,316052526E-1	1,746760458E-1	9,341579437E0	9,344139235E0
1,283496798E0	1,124626622E-1	1,674975902E-1	9,334401131E0	9,336581160E0
1,284692787E0	9,571290761E-2	1,746760458E-1	9,327222824E0	9,329349296E0
1,285888829E0	7,417750359E-2	1,914258152E-1	9,329615593E0	9,331874049E0
1,287084871E0	3,828516230E-2	2,033899277E-1	9,334401131E0	9,336695223E0
1,288280912E0	0,000000000E0	2,225325108E-1	9,343972206E0	9,346621706E0
1,289476954E0	-2,632104978E-2	2,392822653E-1	9,355937004E0	9,359033392E0
1,290672996E0	-3,589234129E-2	2,440679073E-1	9,353543282E0	9,356795890E0
1,291869037E0	-4,785645381E-2	2,488535494E-1	9,346364975E0	9,349799815E0
1,293065079E0	-7,896314561E-2	2,512463629E-1	9,339186668E0	9,342899311E0
1,294261121E0	-1,100698411E-1	2,488535494E-1	9,336793900E0	9,340758202E0
1,295457162E0	-1,268195957E-1	2,536391914E-1	9,334401131E0	9,338707647E0
1,296653204E0	-1,507478207E-1	2,536391914E-1	9,324830055E0	9,329496948E0
1,297849246E0	-1,842473447E-1	2,536391914E-1	9,315258980E0	9,320532699E0
1,299045287E0	-2,129612118E-1	2,560320199E-1	9,317651749E0	9,323601181E0
1,300241329E0	-2,488535494E-1	2,656033039E-1	9,315258980E0	9,322366817E0
1,301437371E0	-2,823530734E-1	2,871387303E-1	9,308079720E0	9,316786998E0
1,302633412E0	-3,182454109E-1	2,967100143E-1	9,288937569E0	9,299122439E0
1,303829454E0	-3,661018610E-1	3,038884699E-1	9,262616158E0	9,274828131E0
1,305025496E0	-4,043870270E-1	3,110669553E-1	9,229117393E0	9,243208284E0
1,306221537E0	-4,522434771E-1	3,182454109E-1	9,190832138E0	9,207453486E0
1,307417579E0	-5,192425251E-1	3,397808075E-1	9,142974854E0	9,164008564E0
1,308613621E0	-5,790630579E-1	3,565305769E-1	9,083154678E0	9,108574366E0
1,309809662E0	-6,269195080E-1	3,661018610E-1	9,020941734E0	9,050107647E0
1,311005704E0	-6,843472719E-1	3,780659735E-1	8,958727837E0	8,992778743E0
1,312201746E0	-7,322037220E-1	3,828516304E-1	8,891729355E0	8,930036315E0
1,313397787E0	-7,561319470E-1	3,732803464E-1	8,822337151E0	8,862545150E0
1,314593829E0	-7,609176040E-1	3,684946895E-1	8,736195564E0	8,777009563E0
1,315789871E0	-7,465606928E-1	3,876372576E-1	8,645268440E0	8,686097047E0
1,316985912E0	-7,274180651E-1	4,019941986E-1	8,542376518E0	8,582711282E0
1,318181954E0	-7,345965505E-1	4,091726840E-1	8,403593063E0	8,445556865E0
1,319377996E0	-7,513462901E-1	4,115654826E-1	8,243273735E0	8,287669713E0
1,320574037E0	-7,609176040E-1	4,163511395E-1	8,066205025E0	8,112706538E0
1,321770079E0	-7,824530005E-1	4,522434771E-1	7,879564762E0	7,931222964E0
1,322966121E0	-7,920243144E-1	5,168496966E-1	7,673782349E0	7,731841414E0
1,324162110E0	-7,920243144E-1	6,484549642E-1	7,427321434E0	7,497526261E0
1,325358152E0	-8,446664214E-1	9,978070259E-1	7,061219692E0	7,181218822E0
1,326554194E0	-9,236295223E-1	1,426122308E0	6,608976364E0	6,823890746E0
1,327750235E0	-9,451649189E-1	1,667797327E0	6,369693756E0	6,651908237E0
1,328946277E0	-9,116654396E-1	1,741974831E0	6,321837425E0	6,620516492E0
1,330142319E0	-8,805587292E-1	1,722832322E0	6,300302029E0	6,590701066E0
1,331338360E0	-8,374879360E-1	1,646261930E0	6,329015732E0	6,593026962E0
1,332534402E0	-7,800601721E-1	1,538584948E0	6,372086525E0	6,601456218E0
1,333730444E0	-7,274180651E-1	1,416550994E0	6,407979012E0	6,602874281E0
1,334926485E0	-6,460621357E-1	1,294517040E0	6,441478729E0	6,601955685E0
1,336122527E0	-5,551348329E-1	1,160519004E0	6,460621357E0	6,587458338E0
1,337318569E0	-4,642075896E-1	9,906286001E-1	6,424728870E0	6,517206055E0
1,338514610E0	-3,732803464E-1	7,800601721E-1	6,333801746E0	6,392564169E0
1,339710652E0	-2,919243574E-1	5,192425251E-1	6,199803352E0	6,228354055E0
1,340906694E0	-2,057827413E-1	2,033899277E-1	6,053841114E0	6,060751293E0
1,342102735E0	-1,124626622E-1	-2,057827413E-1	5,989234924E0	5,993824269E0
1,343298777E0	1,674975827E-2	-8,997012973E-1	5,907878876E0	5,976016716E0
1,344494819E0	1,268195957E-1	-1,574477315E0	5,644668579E0	5,861513916E0
1,345690860E0	1,507478207E-1	-1,909472466E0	5,249852657E0	5,588359592E0
1,346886902E0	1,244267747E-1	-2,014756680E0	4,914857864E0	5,313243296E0
1,348082944E0	-6,939185411E-2	-1,871187329E0	4,400400639E0	4,782225740E0
1,349278985E0	-5,072783828E-1	-1,366301775E0	3,247060299E0	3,559144909E0
1,350475027E0	-9,260223508E-1	-8,614161611E-1	2,014756680E0	2,378823170E0
1,351671069E0	-1,110269666E0	-6,173482537E-1	1,378265858E0	1,874415741E0
1,352867110E0	-1,131805062E0	-4,713860750E-1	1,103091240E0	1,649241588E0
1,354063152E0	-1,076770186E0	-3,852444589E-1	1,012163997E0	1,527194580E0
1,355259194E0	-9,810572863E-1	-3,086741269E-1	1,057627559E0	1,475238682E0
1,356455235E0	-8,805587292E-1	-2,488535494E-1	1,232303619E0	1,534888913E0
1,357651277E0	-7,680960894E-1	-1,986042857E-1	1,466800332E0	1,667608611E0
1,358847319E0	-6,388836503E-1	-1,627119333E-1	1,622333765E0	1,751175130E0
1,360043308E0	-4,570291340E-1	-7,178468257E-2	1,770688772E0	1,830127700E0
1,361239350E0	-2,464607358E-1	4,546362907E-2	1,962114573E0	1,978055467E0
1,362435391E0	-1,076770201E-1	1,004985496E-1	1,954936147E0	1,960476890E0
1,363631433E0	-3,828516230E-2	7,896314561E-2	1,512263894E0	1,514807914E0
1,364827475E0	-1,435693540E-2	4,785645287E-3	8,279166222E-1	8,280549241E-1
1,366023516E0	0,000000000E0	-4,067798331E-2	3,804588020E-1	3,826272316E-1
1,367219558E0	1,196411345E-2	-5,503492057E-2	1,938186288E-1	2,018356841E-1
1,368415600E0	4,785645287E-3	-7,417750359E-2	8,135596663E-2	1,101998083E-1
1,369611641E0	4,785645287E-3	-9,332008660E-2	4,785645381E-2	1,049846709E-1
1,370807683E0	2,392822690E-2	-9,332008660E-2	2,871387079E-2	1,005270361E-1
1,372003725E0	2,871387079E-2	-8,614161611E-2	2,392822690E-2	9,390114187E-2
1,373199766E0	3,349951655E-2	-8,853443712E-2	1,435693540E-2	9,574281048E-2
1,374395808E0	4,785645381E-2	-8,614161611E-2	2,392822644E-3	9,857151615E-2
1,375591850E0	4,307080805E-2	-9,092725813E-2	-7,178467698E-3	1,008681871E-1
1,376787891E0	3,349951655E-2	-9,092725813E-2	-4,785645287E-3	9,702003031E-2
1,377983933E0	2,632104978E-2	-8,853443712E-2	-4,785645287E-3	9,248808906E-2
1,379179975E0	2,392822690E-2	-8,853443712E-2	-7,178467698E-3	9,199150503E-2
1,380376016E0	1,674975827E-2	-9,571290761E-2	-1,196411345E-2	9,790125176E-2
1,381572058E0	4,785645287E-3	-1,028913707E-1	-9,571290575E-3	1,034463443E-1
1,382768100E0	7,178467698E-3	-1,076770201E-1	-2,392822644E-3	1,079425619E-1
1,383964141E0	1,196411345E-2	-1,004985496E-1	0,000000000E0	1,012081938E-1
1,385160183E0	1,196411345E-2	-8,614161611E-2	7,178467698E-3	8,726424488E-2
1,386356225E0	1,196411345E-2	-8,614161611E-2	9,571290575E-3	8,749358628E-2
1,387552266E0	9,571290575E-3	-8,614161611E-2	2,392822644E-3	8,670474744E-2
1,388748308E0	1,435693540E-2	-8,614161611E-2	7,178467698E-3	8,762436886E-2
1,389944350E0	1,674975827E-2	-1,052841991E-1	1,674975827E-2	1,079160386E-1
1,391140391E0	1,435693540E-2	-1,076770201E-1	1,914258115E-2	1,103036748E-1
1,392336433E0	7,178467698E-3	-8,853443712E-2	1,914258115E-2	9,086426893E-2
1,393532475E0	0,000000000E0	-8,135596663E-2	1,435693540E-2	8,261304316E-2
1,394728516E0	0,000000000E0	-8,374879509E-2	9,571290575E-3	8,429395164E-2
1,395924506E0	2,392822644E-3	-8,614161611E-2	1,435693540E-2	8,736260767E-2
1,397120548E0	0,000000000E0	-8,614161611E-2	2,153540403E-2	8,879274549E-2
1,398316589E0	1,435693540E-2	-8,614161611E-2	2,392822690E-2	9,054865908E-2
1,399512631E0	2,392822690E-2	-8,135596663E-2	1,674975827E-2	8,644019754E-2
1,400708673E0	1,914258115E-2	-8,135596663E-2	1,674975827E-2	8,523958072E-2
1,401904714E0	9,571290575E-3	-7,657032460E-2	9,571290575E-3	7,775753221E-2
1,403100756E0	0,000000000E0	-7,896314561E-2	7,178467698E-3	7,928876821E-2
1,404296798E0	-2,392822644E-3	-8,374879509E-2	1,674975827E-2	8,544086073E-2
1,405492839E0	4,785645287E-3	-7,896314561E-2	1,914258115E-2	8,139114927E-2
1,406688881E0	1,435693540E-2	-7,657032460E-2	2,153540403E-2	8,082641790E-2
1,407884923E0	2,632104978E-2	-8,374879509E-2	2,392822690E-2	9,099021037E-2
1,409080964E0	3,349951655E-2	-9,810572863E-2	2,871387079E-2	1,075706185E-1
1,410277006E0	1,914258115E-2	-9,571290761E-2	3,110669367E-2	1,024452316E-1
1,411473048E0	-2,392822644E-3	-8,614161611E-2	3,110669367E-2	9,161730195E-2
1,412669089E0	-1,196411345E-2	-8,853443712E-2	2,632104978E-2	9,313583751E-2
1,413865131E0	-7,178467698E-3	-8,614161611E-2	2,392822690E-2	8,969096090E-2
1,415061173E0	2,392822644E-3	-8,374879509E-2	3,349951655E-2	9,023194494E-2
1,416257214E0	1,196411345E-2	-8,614161611E-2	3,349951655E-2	9,319729419E-2
1,417453256E0	1,435693540E-2	-8,853443712E-2	2,632104978E-2	9,347334279E-2
1,418649298E0	7,178467698E-3	-9,092725813E-2	3,349951655E-2	9,716745483E-2
1,419845339E0	9,571290575E-3	-9,810572863E-2	4,785645381E-2	1,095745580E-1
1,421041381E0	4,785645287E-3	-9,571290761E-2	4,785645381E-2	1,071172407E-1
1,422237423E0	-9,571290575E-3	-8,614161611E-2	4,546362907E-2	9,787200415E-2
1,423433464E0	-1,196411345E-2	-8,374879509E-2	4,067798331E-2	9,387065045E-2
1,424629506E0	-9,571290575E-3	-8,614161611E-2	3,589234129E-2	9,380963592E-2
1,425825548E0	-1,196411345E-2	-7,896314561E-2	3,110669367E-2	8,570848714E-2
1,427021589E0	-1,435693540E-2	-7,657032460E-2	3,110669367E-2	8,388541348E-2
1,428217631E0	-9,571290575E-3	-7,178468257E-2	3,349951655E-2	7,979265545E-2
1,429413673E0	-4,785645287E-3	-7,657032460E-2	3,349951655E-2	8,371460218E-2
1,430609714E0	0,000000000E0	-8,374879509E-2	4,546362907E-2	9,529324345E-2
1,431805704E0	7,178467698E-3	-8,374879509E-2	6,221338734E-2	1,045748375E-1
1,433001746E0	1,674975827E-2	-8,853443712E-2	6,939185411E-2	1,137283183E-1
1,434197787E0	2,632104978E-2	-8,853443712E-2	7,178468257E-2	1,169794207E-1
1,435393829E0	2,632104978E-2	-8,135596663E-2	6,939185411E-2	1,101218434E-1
1,436589871E0	2,392822690E-2	-7,896314561E-2	6,939185411E-2	1,078098689E-1
1,437785912E0	2,392822690E-2	-7,417750359E-2	7,178468257E-2	1,059617985E-1
1,438981954E0	1,674975827E-2	-5,982056633E-2	7,178468257E-2	9,493205575E-2
1,440177996E0	1,435693540E-2	-5,503492057E-2	6,460621208E-2	8,607512251E-2
1,441374037E0	1,674975827E-2	-6,699903309E-2	6,221338734E-2	9,295122593E-2
1,442570079E0	1,196411345E-2	-8,135596663E-2	5,742774159E-2	1,002989473E-1
1,443766121E0	9,571290575E-3	-9,332008660E-2	5,264209956E-2	1,075706224E-1
1,444962162E0	1,196411345E-2	-1,052841991E-1	6,221338734E-2	1,228755800E-1
1,446158204E0	4,785645287E-3	-1,052841991E-1	6,699903309E-2	1,248860898E-1
1,447354246E0	0,000000000E0	-9,332008660E-2	6,221338734E-2	1,121567837E-1
1,448550287E0	7,178467698E-3	-7,657032460E-2	6,221338734E-2	9,891941454E-2
1,449746329E0	1,435693540E-2	-7,178468257E-2	7,178468257E-2	1,025290344E-1
1,450942371E0	1,914258115E-2	-7,896314561E-2	7,896314561E-2	1,132995814E-1
1,452138412E0	1,196411345E-2	-8,135596663E-2	7,657032460E-2	1,123607935E-1
1,453334454E0	9,571290575E-3	-9,810572863E-2	7,896314561E-2	1,262993347E-1
1,454530496E0	1,674975827E-2	-1,028913707E-1	7,896314561E-2	1,307760181E-1
1,455726537E0	1,196411345E-2	-8,135596663E-2	7,417750359E-2	1,107440082E-1
1,456922579E0	9,571290575E-3	-7,657032460E-2	7,178468257E-2	1,053929071E-1
1,458118621E0	1,435693540E-2	-7,417750359E-2	8,135596663E-2	1,110280007E-1
1,459314662E0	2,153540403E-2	-6,939185411E-2	9,092725813E-2	1,163905895E-1
1,460510704E0	1,196411345E-2	-7,417750359E-2	9,571290761E-2	1,216815628E-1
1,461706746E0	-4,785645287E-3	-7,896314561E-2	9,571290761E-2	1,241734329E-1
1,462902787E0	-9,571290575E-3	-8,135596663E-2	8,614161611E-2	1,188729613E-1
1,464098777E0	-2,392822644E-3	-8,135596663E-2	8,374879509E-2	1,167834731E-1
1,465294819E0	4,785645287E-3	-8,853443712E-2	9,571290761E-2	1,304691904E-1
1,466490860E0	1,435693540E-2	-9,332008660E-2	1,172483116E-1	1,505387882E-1
1,467686902E0	1,196411345E-2	-8,614161611E-2	1,268195957E-1	1,537749261E-1
1,468882944E0	4,785645287E-3	-8,374879509E-2	1,196411327E-1	1,461190053E-1
1,470078985E0	1,196411345E-2	-8,853443712E-2	1,172483116E-1	1,474064217E-1
1,471275027E0	1,674975827E-2	-8,614161611E-2	1,244267747E-1	1,522594978E-1
1,472471069E0	9,571290575E-3	-8,853443712E-2	1,244267747E-1	1,530097331E-1
1,473667110E0	1,196411345E-2	-8,853443712E-2	1,196411327E-1	1,493167345E-1
1,474863152E0	2,153540403E-2	-8,853443712E-2	1,148554832E-1	1,466079882E-1
1,476059194E0	2,153540403E-2	-8,374879509E-2	1,220339537E-1	1,495657720E-1
1,477255235E0	9,571290575E-3	-7,896314561E-2	1,363908947E-1	1,578900380E-1
1,478451277E0	1,674975827E-2	-7,178468257E-2	1,411765367E-1	1,592620782E-1
1,479647319E0	3,110669367E-2	-7,178468257E-2	1,363908947E-1	1,572359475E-1
1,480843360E0	2,871387079E-2	-8,135596663E-2	1,316052526E-1	1,573633445E-1
1,482039402E0	2,392822690E-2	-8,614161611E-2	1,363908947E-1	1,630810051E-1
1,483235444E0	1,674975827E-2	-8,614161611E-2	1,363908947E-1	1,621832561E-1
1,484431485E0	9,571290575E-3	-7,178468257E-2	1,316052526E-1	1,502151549E-1
1,485627527E0	4,785645287E-3	-7,178468257E-2	1,339980662E-1	1,520901864E-1
1,486823569E0	9,571290575E-3	-9,092725813E-2	1,411765367E-1	1,681968798E-1
1,488019610E0	1,674975827E-2	-1,004985496E-1	1,435693651E-1	1,760473672E-1
1,489215652E0	2,392822690E-2	-9,092725813E-2	1,507478207E-1	1,776660681E-1
1,490411694E0	2,392822690E-2	-8,374879509E-2	1,627119333E-1	1,845578336E-1
1,491607735E0	1,914258115E-2	-8,614161611E-2	1,674975902E-1	1,893205196E-1
1,492803777E0	2,871387079E-2	-9,332008660E-2	1,770688742E-1	2,022041324E-1
1,493999819E0	3,110669367E-2	-9,571290761E-2	1,866401732E-1	2,120451398E-1
1,495195860E0	2,392822690E-2	-8,853443712E-2	1,890329868E-1	2,101056322E-1
1,496391850E0	1,196411345E-2	-7,896314561E-2	1,938186288E-1	2,096281929E-1
1,497587891E0	7,178467698E-3	-7,178468257E-2	2,033899277E-1	2,158055462E-1
1,498783933E0	1,435693540E-2	-7,178468257E-2	2,081755698E-1	2,206722232E-1
1,499979975E0	1,674975827E-2	-7,417750359E-2	2,153540403E-1	2,283861184E-1
1,501176016E0	1,674975827E-2	-7,417750359E-2	2,321037948E-1	2,442437881E-1
1,502372058E0	1,914258115E-2	-7,178468257E-2	2,392822653E-1	2,505503573E-1
1,503568100E0	1,674975827E-2	-7,896314561E-2	2,560320199E-1	2,684550762E-1
1,504764141E0	2,392822690E-2	-9,332008660E-2	2,823530734E-1	2,983361471E-1
1,505960183E0	2,632104978E-2	-9,571290761E-2	3,062812984E-1	3,219658244E-1
1,507156225E0	2,871387079E-2	-8,853443712E-2	3,349951804E-1	3,476846327E-1
1,508352266E0	2,153540403E-2	-8,135596663E-2	3,756731451E-1	3,849842579E-1
1,509548308E0	1,196411345E-2	-7,657032460E-2	4,211367965E-1	4,282083091E-1
1,510744350E0	2,392822690E-2	-7,417750359E-2	4,833501875E-1	4,895939806E-1
1,511940391E0	3,828516230E-2	-8,135596663E-2	5,647061467E-1	5,718195337E-1
1,513136433E0	3,349951655E-2	-8,374879509E-2	6,819544435E-1	6,878938445E-1
1,514332475E0	1,914258115E-2	-7,178468257E-2	8,781659007E-1	8,813029151E-1
1,515528516E0	1,196411345E-2	-5,982056633E-2	1,205982566E0	1,207524571E0
1,516724558E0	1,674975827E-2	-5,742774159E-2	1,859223247E0	1,860185362E0
1,517920600E0	5,503492057E-2	-4,785645381E-2	3,775874138E0	3,776578423E0
1,519116641E0	1,572084427E0	5,288137794E-1	1,581177235E1	1,589852944E1
1,520312683E0	-8,039883971E-1	7,202396393E0	3,806262970E1	3,874641520E1
1,521508725E0	-7,066005230E0	1,341177082E1	2,881676292E1	3,256086381E1
1,522704766E0	-6,130411625E0	8,123632431E0	1,679761505E1	1,964014313E1
1,523900756E0	-2,806781054E0	3,828516245E0	6,530013084E0	8,073204283E0
1,525096798E0	-1,557727575E0	2,103291035E0	2,608176708E0	3,694987702E0
1,526292839E0	-3,086741269E-1	4,019941986E-1	5,635097504E0	5,657844371E0
1,527488881E0	9,020941257E-1	1,938186288E-1	-6,460621208E-2	9,249396927E-1
1,528684923E0	3,335594654E0	-1,715653777E0	4,991427898E0	6,243717806E0
1,529880964E0	5,103890896E0	-2,529213428E0	5,962913990E0	8,246391095E0
1,531077006E0	4,591826439E0	-2,699103832E0	6,049055576E0	8,059845216E0
1,532273048E0	2,801995277E0	-1,765903115E0	2,215753794E0	3,984865898E0
1,533469089E0	1,459621787E0	-9,810572863E-1	4,139583111E-1	1,806745871E0
1,534665131E0	6,843472719E-1	-5,814558864E-1	-4,594219327E-1	1,008707415E0
1,535861173E0	3,517449200E-1	-2,464607358E-1	-5,694918036E-1	7,132939769E-1
1,537057214E0	1,627119333E-1	-1,818545163E-1	-2,033899277E-1	3,176691691E-1
1,538253204E0	1,004985496E-1	-6,460621208E-2	-5,264209956E-2	1,305569292E-1
1,539449246E0	4,067798331E-2	-8,374879509E-2	3,589234129E-2	9,978386227E-2
1,540645287E0	1,435693540E-2	-4,307080805E-2	-1,507478207E-1	1,574360872E-1
1,541841329E0	7,178467698E-3	-5,742774159E-2	-2,057827413E-1	2,137662567E-1
1,543037371E0	4,785645287E-3	-4,307080805E-2	-1,722832322E-1	1,776499620E-1
1,544233412E0	-0,000000000E0	-4,785645381E-2	-1,076770201E-1	1,178328513E-1
1,545429454E0	9,571290575E-3	-3,828516230E-2	-1,076770201E-1	1,146808786E-1
1,546625496E0	1,674975827E-2	-3,589234129E-2	-1,004985496E-1	1,080220952E-1
1,547821537E0	1,435693540E-2	-4,067798331E-2	-1,028913707E-1	1,115681589E-1
1,549017579E0	1,914258115E-2	-4,307080805E-2	-1,172483116E-1	1,263673198E-1
1,550213621E0	2,392822690E-2	-4,785645381E-2	-1,459621787E-1	1,554598271E-1
1,551409662E0	2,392822690E-2	-5,024927482E-2	-2,009970993E-1	2,085602637E-1
1,552605704E0	1,435693540E-2	-5,503492057E-2	-2,225325108E-1	2,296860519E-1
1,553801746E0	-2,392822644E-3	-5,503492057E-2	-2,321037948E-1	2,385513355E-1
1,554997787E0	-1,435693540E-2	-5,264209956E-2	-1,603191197E-1	1,693503244E-1
1,556193829E0	-1,674975827E-2	-5,503492057E-2	-1,028913707E-1	1,178814279E-1
1,557389819E0	-2,871387079E-2	-5,503492057E-2	-6,460621208E-2	8,959515332E-2
1,558585860E0	-3,828516230E-2	-6,221338734E-2	-1,674975827E-2	7,494540425E-2
1,559781902E0	-4,546362907E-2	-6,460621208E-2	2,392822644E-3	7,903562366E-2
1,560977944E0	-5,742774159E-2	-5,982056633E-2	2,153540403E-2	8,567507973E-2
1,562173985E0	-5,024927482E-2	-5,742774159E-2	1,196411345E-2	7,724037244E-2
1,563370027E0	-4,546362907E-2	-5,742774159E-2	1,914258115E-2	7,570551819E-2
1,564566069E0	-3,589234129E-2	-5,264209956E-2	3,589234129E-2	7,312804504E-2
1,565762110E0	-3,589234129E-2	-4,307080805E-2	1,674975827E-2	5,851417838E-2
1,566958152E0	-4,546362907E-2	-4,067798331E-2	-1,435693540E-2	6,267185563E-2
1,568154194E0	-4,307080805E-2	-5,024927482E-2	-2,871387079E-2	7,214270928E-2
1,569350235E0	-3,589234129E-2	-5,742774159E-2	-4,785645287E-3	6,789041219E-2
1,570546277E0	-3,828516230E-2	-5,264209956E-2	3,349951655E-2	7,320629691E-2
1,571742319E0	-3,349951655E-2	-4,785645381E-2	6,939185411E-2	9,070659952E-2
1,572938360E0	-2,632104978E-2	-5,264209956E-2	8,135596663E-2	1,004130550E-1
1,574134402E0	-2,392822690E-2	-5,024927482E-2	8,374879509E-2	1,005555088E-1
1,575330444E0	8,853443712E-2	-1,363908947E-1	-1,268195957E-1	2,062135605E-1
1,576526485E0	8,853443861E-1	-7,010970116E-1	-7,417750359E-2	1,131757043E0
1,577722527E0	2,684746981E0	-1,954936147E0	1,569691658E0	3,673359986E0
1,578918569E0	4,689932346E0	-3,517449379E0	4,144368649E0	7,179394615E0
1,580114558E0	5,682953835E0	-4,587040901E0	6,065805435E0	9,493729725E0
1,581310652E0	5,139782906E0	-4,455435753E0	5,931807518E0	9,025221133E0
1,582506641E0	3,672982693E0	-3,337987661E0	4,015156269E0	6,383920688E0
1,583702683E0	2,177468538E0	-2,055434704E0	2,182254314E0	3,705187573E0
1,584898725E0	1,083948612E0	-1,098305583E0	9,260223508E-1	1,799649172E0
1,586094766E0	4,522434771E-1	-5,312066078E-1	3,996013701E-1	8,039812670E-1
1,587290808E0	1,292124242E-1	-2,464607358E-1	2,512463629E-1	3,749179640E-1
1,588486850E0	-2,871387079E-2	-1,004985496E-1	1,435693651E-1	1,775854934E-1
1,589682891E0	-9,571290761E-2	-1,674975827E-2	9,810572863E-2	1,380805891E-1
1,590878933E0	-1,316052526E-1	2,632104978E-2	8,135596663E-2	1,569443643E-1
1,592074975E0	-1,531406492E-1	3,589234129E-2	9,332008660E-2	1,828905606E-1
1,593271016E0	-1,603191197E-1	3,828516230E-2	1,028913707E-1	1,943054501E-1
1,594467058E0	-1,603191197E-1	4,546362907E-2	1,100698411E-1	1,997111205E-1
1,595663100E0	-1,674975902E-1	5,024927482E-2	1,220339537E-1	2,132433309E-1
1,596859141E0	-1,770688742E-1	5,024927482E-2	1,387837082E-1	2,305196163E-1
1,598055183E0	-1,698904037E-1	5,503492057E-2	1,435693651E-1	2,291369773E-1
1,599251225E0	-1,579262912E-1	6,221338734E-2	1,459621787E-1	2,238664259E-1
1,600447266E0	-1,555334777E-1	6,221338734E-2	1,459621787E-1	2,221848911E-1
1,601643308E0	-1,531406492E-1	5,982056633E-2	1,698904037E-1	2,364176556E-1
1,602839350E0	-1,579262912E-1	5,264209956E-2	2,153540403E-1	2,721934363E-1
1,604035391E0	-1,698904037E-1	4,067798331E-2	2,584248483E-1	3,119308414E-1
1,605231433E0	-1,746760458E-1	4,067798331E-2	2,871387303E-1	3,385484747E-1
1,606427475E0	-1,698904037E-1	4,067798331E-2	3,302095234E-1	3,735716491E-1
1,607623516E0	-1,674975902E-1	5,024927482E-2	4,019941986E-1	4,383831293E-1
1,608819558E0	-1,770688742E-1	5,503492057E-2	5,288137794E-1	5,603804439E-1
1,610015600E0	-1,651047617E-1	7,657032460E-2	5,862415433E-1	6,138417907E-1
1,611211641E0	8,662018180E-1	1,512263894E0	-5,426921844E0	5,699888453E0
1,612407683E0	3,196810961E0	2,311466694E0	-2,617269325E1	2,646832731E1
1,613603673E0	5,443671703E0	3,940979004E0	-2,179622078E1	2,280877282E1
1,614799714E0	1,000199890E1	5,754738331E0	1,746282005E1	2,093100761E1
1,615995756E0	1,692443466E1	4,077369690E0	4,778705978E1	5,085926184E1
1,617191798E0	1,647697639E1	6,891329288E-1	5,988756561E1	6,211671410E1
1,618387839E0	9,487542152E0	-8,733802438E-1	4,667679214E1	4,763926085E1
1,619583881E0	4,622933388E0	-3,613162339E-1	2,275574303E1	2,322339129E1
1,620779923E0	2,210968018E0	-3,661018610E-1	1,028435135E1	1,052569679E1
1,621975964E0	1,055234790E0	-1,698904037E-1	4,656432629E0	4,777525305E0
1,623172006E0	4,857429862E-1	-1,722832322E-1	2,328216314E0	2,384579411E0
1,624368048E0	2,009970993E-1	-1,818545163E-1	1,241874933E0	1,271111423E0
1,625564089E0	5,264209956E-2	-1,794617027E-1	5,288137794E-1	5,609114962E-1
1,626760131E0	-7,417750359E-2	-2,584248483E-1	1,244267747E-1	2,962561839E-1
1,627956173E0	-2,105683982E-1	-3,972085714E-1	-3,469592929E-1	5,678859485E-1
1,629152214E0	-4,737788737E-1	-8,422735929E-1	-9,954141974E-1	1,387350227E0
1,630348256E0	-8,877372146E-1	-1,514656782E0	-2,289931297E0	2,885489192E0
1,631544298E0	-1,332802176E0	-2,194218397E0	-3,742374659E0	4,538317320E0
1,632740339E0	-1,543370605E0	-2,335394859E0	-4,541577339E0	5,334977666E0
1,633936381E0	-1,342373490E0	-1,797009826E0	-3,890729666E0	4,490989672E0
1,635132423E0	-9,403793216E-1	-1,004985452E0	-2,574677229E0	2,919464310E0
1,636328464E0	-5,670989752E-1	-2,967100143E-1	-1,500299811E0	1,631115448E0
1,637524506E0	-2,847459018E-1	2,751746178E-1	-6,580262184E-1	7,679842466E-1
1,638720496E0	-1,004985496E-1	6,723831892E-1	1,004985496E-1	6,872401837E-1
1,639916589E0	3,589234129E-2	9,044869542E-1	9,164510965E-1	1,288125585E0
1,641112579E0	1,411765367E-1	1,000199914E0	1,926222205E0	2,175008659E0
1,642308621E0	1,890329868E-1	1,014556766E0	3,385843992E0	3,539632529E0
1,643504662E0	1,268195957E-1	1,069591761E0	5,929414749E0	6,026447462E0
1,644700704E0	-3,445664644E-1	1,430907965E0	1,242832088E1	1,251516615E1
1,645896746E0	-1,593619823E0	2,026720762E0	2,476810646E1	2,490193404E1
1,647092787E0	-3,436093330E0	1,694118381E0	3,741417313E1	3,760980092E1
1,648288829E0	-4,292723656E0	2,871387303E-1	3,942414474E1	3,965820361E1
1,649484871E0	-3,577269793E0	-8,039883971E-1	2,999163818E1	3,021492375E1
1,650680912E0	-2,553141832E0	-1,095912814E0	1,882194328E1	1,902590621E1
1,651876954E0	-1,663011789E0	-9,475577474E-1	1,130608654E1	1,146695543E1
1,653072996E0	-7,872386575E-1	-6,867401004E-1	7,314858913E0	7,389080971E0
1,654269037E0	6,221338734E-2	-3,900300860E-1	5,364708424E0	5,379227681E0
1,655465079E0	7,657032609E-1	-2,632104978E-2	4,503292084E0	4,568001081E0
1,656661121E0	1,237089276E0	3,326023519E-1	4,151547432E0	4,344693347E0
1,657857162E0	1,466800332E0	5,503492355E-1	4,058227062E0	4,350125789E0
1,659053204E0	1,493121386E0	5,575276613E-1	4,175475597E0	4,469322659E0
1,660249246E0	1,385444283E0	4,426721931E-1	4,543970108E0	4,771066849E0
1,661445287E0	1,146162033E0	3,302095234E-1	5,242674351E0	5,376649522E0
1,662641329E0	7,752745152E-1	2,751746178E-1	6,398407936E0	6,451077101E0
1,663837371E0	3,661018610E-1	2,416750938E-1	8,035098076E0	8,047063968E0
1,665033412E0	4,546362907E-2	1,722832322E-1	1,002592659E1	1,002750978E1
1,666229454E0	-1,292124242E-1	7,178468257E-2	1,213878918E1	1,213968911E1
1,667425496E0	-1,794617027E-1	2,392822690E-2	1,389272785E1	1,389390752E1
1,668621485E0	-1,627119333E-1	7,178468257E-2	1,467996693E1	1,468104414E1
1,669817579E0	-1,292124242E-1	1,387837082E-1	1,414636707E1	1,414763790E1
1,671013569E0	-9,332008660E-2	1,483550072E-1	1,250489140E1	1,250611957E1
1,672209610E0	-2,632104978E-2	1,004985496E-1	1,047817039E1	1,047868539E1
1,673405652E0	8,374879509E-2	8,135596663E-2	8,757730484E0	8,758508771E0
1,674601694E0	1,938186288E-1	1,268195957E-1	7,671389580E0	7,674885469E0
1,675797735E0	2,703889608E-1	2,153540403E-1	7,207181931E0	7,215466647E0
1,676993777E0	2,991028428E-1	3,062812984E-1	7,223931789E0	7,236605644E0
1,678189819E0	2,919243574E-1	3,349951804E-1	7,683353424E0	7,696191359E0
1,679385860E0	2,656033039E-1	2,967100143E-1	8,597412109E0	8,606629824E0
1,680581902E0	2,201396823E-1	2,464607358E-1	9,820143700E0	9,825702349E0
1,681777944E0	1,531406492E-1	2,225325108E-1	1,102373409E1	1,102704340E1
1,682973985E0	1,052841991E-1	1,986042857E-1	1,175115204E1	1,175330178E1
1,684170027E0	1,196411327E-1	1,124626622E-1	1,182532978E1	1,182646973E1
1,685366069E0	1,507478207E-1	7,178467698E-3	1,144726372E1	1,144825852E1
1,686562110E0	1,722832322E-1	-5,742774159E-2	1,093280697E1	1,093431514E1
1,687758152E0	1,794617027E-1	-5,264209956E-2	1,049013424E1	1,049180128E1
1,688954194E0	2,009970993E-1	2,392822644E-3	1,013121128E1	1,013320520E1
1,690150235E0	2,560320199E-1	2,632104978E-2	9,848857880E0	9,852220396E0
1,691346277E0	3,182454109E-1	-1,435693540E-2	9,705288887E0	9,710515879E0
1,692542319E0	3,517449200E-1	-5,264209956E-2	9,760323524E0	9,766801471E0
1,693738360E0	3,254238665E-1	-2,871387079E-2	9,980463028E0	9,985808301E0
1,694934402E0	2,703889608E-1	1,435693540E-2	1,024606609E1	1,024964325E1
1,696130444E0	2,129612118E-1	-2,392822644E-3	1,044227791E1	1,044444954E1
1,697326485E0	1,579262912E-1	-6,699903309E-2	1,055952644E1	1,056091986E1
1,698522475E0	1,148554832E-1	-1,268195957E-1	1,064806080E1	1,064943537E1
1,699718516E0	7,657032460E-2	-1,124626622E-1	1,068395329E1	1,068481954E1
1,700914558E0	4,067798331E-2	-4,067798331E-2	1,062173939E1	1,062189517E1
1,702110600E0	4,785645287E-3	-1,435693540E-2	1,043749237E1	1,043750334E1
1,703306641E0	-7,178467698E-3	-5,024927482E-2	1,022931671E1	1,022944265E1
1,704502683E0	9,571290575E-3	-1,100698411E-1	1,014317513E1	1,014377684E1
1,705698725E0	4,307080805E-2	-1,196411327E-1	1,019342422E1	1,019421731E1
1,706894766E0	5,982056633E-2	-5,024927482E-2	1,027478027E1	1,027507728E1
1,708090808E0	5,982056633E-2	1,435693540E-2	1,027717304E1	1,027735717E1
1,709286850E0	5,503492057E-2	-7,178467698E-3	1,019581699E1	1,019596805E1
1,710482891E0	4,067798331E-2	-9,092725813E-2	1,009053326E1	1,009102492E1
1,711678933E0	3,110669367E-2	-1,411765367E-1	1,002114105E1	1,002218372E1
1,712874975E0	2,392822690E-2	-1,148554832E-1	9,954142570E0	9,954833934E0
1,714071016E0	1,196411345E-2	-5,024927482E-2	9,836894035E0	9,837029653E0
1,715267058E0	1,914258115E-2	-3,349951655E-2	9,686145782E0	9,686222627E0
1,716463100E0	4,785645381E-2	-7,657032460E-2	9,571290970E0	9,571716883E0
1,717659141E0	7,657032460E-2	-1,148554832E-1	9,549755096E0	9,550752703E0
1,718855183E0	8,614161611E-2	-7,657032460E-2	9,578469276E0	9,579162650E0
1,720051225E0	1,004985496E-1	1,196411345E-2	9,561718941E0	9,562254556E0
1,721247266E0	1,459621787E-1	7,417750359E-2	9,463613510E0	9,465029737E0
1,722443308E0	1,962114573E-1	5,982056633E-2	9,346364975E0	9,348615709E0
1,723639350E0	2,153540403E-1	4,785645287E-3	9,327222824E0	9,329709849E0
1,724835391E0	1,962114573E-1	-1,435693540E-2	9,439684868E0	9,441734770E0
1,726031433E0	1,698904037E-1	3,110669367E-2	9,614361763E0	9,615912982E0
1,727227475E0	1,890329868E-1	8,374879509E-2	9,757930756E0	9,760120899E0
1,728423516E0	2,225325108E-1	9,571290761E-2	9,791430473E0	9,794426598E0
1,729619506E0	2,153540403E-1	7,896314561E-2	9,690931320E0	9,693645465E0
1,730815548E0	1,531406492E-1	6,221338734E-2	9,499505997E0	9,500943992E0
1,732011589E0	7,178468257E-2	9,571290761E-2	9,288937569E0	9,289708023E0
1,733207631E0	3,828516230E-2	1,746760458E-1	9,114261627E0	9,116015713E0
1,734403673E0	5,024927482E-2	2,321037948E-1	9,016156197E0	9,019283216E0
1,735599714E0	8,135596663E-2	2,464607358E-1	9,025727272E0	9,029458150E0
1,736795756E0	7,896314561E-2	2,392822653E-1	9,147761345E0	9,151230999E0
1,737991798E0	5,264209956E-2	2,488535494E-1	9,339186668E0	9,342649887E0
1,739187839E0	3,828516230E-2	2,679961324E-1	9,521040916E0	9,524888861E0
1,740383881E0	5,742774159E-2	2,775674164E-1	9,645467758E0	9,649631593E0
1,741579923E0	8,374879509E-2	2,656033039E-1	9,693324089E0	9,697323903E0
1,742775964E0	6,939185411E-2	2,368894368E-1	9,652647018E0	9,655802727E0
1,743972006E0	4,307080805E-2	2,368894368E-1	9,547362328E0	9,550397851E0
1,745168048E0	2,871387079E-2	2,464607358E-1	9,406186104E0	9,409458242E0
1,746364089E0	3,110669367E-2	2,584248483E-1	9,284152031E0	9,287800060E0
1,747560131E0	4,546362907E-2	2,584248483E-1	9,257830620E0	9,261548366E0
1,748756173E0	6,699903309E-2	2,392822653E-1	9,372686386E0	9,375979680E0
1,749952214E0	9,332008660E-2	2,321037948E-1	9,585647583E0	9,588911325E0
1,751148256E0	1,100698411E-1	2,440679073E-1	9,801001549E0	9,804657866E0
1,752344298E0	1,172483116E-1	2,440679073E-1	9,954142570E0	9,957824593E0
1,753540339E0	1,363908947E-1	2,201396823E-1	1,003789139E1	1,004123137E1
1,754736381E0	1,579262912E-1	1,794617027E-1	1,010249710E1	1,010532508E1
1,755932423E0	1,770688742E-1	1,531406492E-1	1,016710377E1	1,016979864E1
1,757128464E0	1,890329868E-1	1,674975902E-1	1,019820976E1	1,020133674E1
1,758324454E0	1,818545163E-1	1,722832322E-1	1,015274620E1	1,015583615E1
1,759520548E0	1,722832322E-1	1,555334777E-1	1,006660461E1	1,006928005E1
1,760716537E0	1,722832322E-1	1,196411327E-1	1,002353382E1	1,002572819E1
1,761912579E0	1,698904037E-1	7,178468257E-2	1,006181908E1	1,006350927E1
1,763108621E0	1,627119333E-1	5,742774159E-2	1,014317513E1	1,014464266E1
1,764304662E0	1,387837082E-1	7,657032460E-2	1,020060253E1	1,020183395E1
1,765500704E0	1,172483116E-1	7,417750359E-2	1,019103146E1	1,019197584E1
1,766696746E0	1,004985496E-1	3,589234129E-2	1,014317513E1	1,014373648E1
1,767892787E0	8,853443712E-2	-1,435693540E-2	1,014078236E1	1,014117899E1
1,769088829E0	8,853443712E-2	-3,110669367E-2	1,020299530E1	1,020342683E1
1,770284871E0	9,332008660E-2	-1,196411345E-2	1,027238750E1	1,027281835E1
1,771480912E0	1,004985496E-1	7,178467698E-3	1,031545830E1	1,031595034E1
1,772676954E0	1,076770201E-1	-1,196411345E-2	1,032742214E1	1,032799039E1
1,773872996E0	1,100698411E-1	-6,460621208E-2	1,032502937E1	1,032581817E1
1,775069037E0	1,148554832E-1	-1,148554832E-1	1,032263660E1	1,032391447E1
1,776265079E0	1,268195957E-1	-1,148554832E-1	1,030827999E1	1,030969987E1
1,777461121E0	1,435693651E-1	-9,092725813E-2	1,026042366E1	1,026183091E1
1,778657162E0	1,627119333E-1	-7,896314561E-2	1,016231823E1	1,016392750E1
1,779853204E0	1,674975902E-1	-9,810572863E-2	1,002831936E1	1,003019787E1
1,781049246E0	1,579262912E-1	-1,387837082E-1	9,932606697E0	9,934831525E0
1,782245287E0	1,555334777E-1	-1,555334777E-1	9,896714211E0	9,899158221E0
1,783441329E0	1,651047617E-1	-1,459621787E-1	9,901499748E0	9,903951828E0
1,784637371E0	1,794617027E-1	-1,435693651E-1	9,932606697E0	9,935265193E0
1,785833412E0	1,794617027E-1	-1,651047617E-1	9,951749802E0	9,954737073E0
1,787029454E0	1,698904037E-1	-1,890329868E-1	9,961320877E0	9,964562702E0
1,788225444E0	1,603191197E-1	-2,033899277E-1	9,980463028E0	9,983822511E0
1,789421485E0	1,627119333E-1	-1,962114573E-1	1,001156998E1	1,001481440E1
1,790617527E0	1,674975902E-1	-1,746760458E-1	1,001156998E1	1,001449452E1
1,791813569E0	1,651047617E-1	-1,483550072E-1	9,958928108E0	9,961401400E0
1,793009610E0	1,507478207E-1	-1,244267747E-1	9,875179291E0	9,877113594E0
1,794205652E0	1,268195957E-1	-1,124626622E-1	9,796216011E0	9,797682338E0
1,795401694E0	1,076770201E-1	-9,810572863E-2	9,750752449E0	9,751840462E0
1,796597735E0	9,571290761E-2	-7,896314561E-2	9,707681656E0	9,708474611E0
1,797793777E0	7,178468257E-2	-6,221338734E-2	9,645467758E0	9,645935508E0
1,798989819E0	2,632104978E-2	-5,024927482E-2	9,578469276E0	9,578637245E0
1,800185860E0	-7,178467698E-3	-4,307080805E-2	9,509077072E0	9,509177325E0
1,801381902E0	-1,674975827E-2	-1,914258115E-2	9,454042435E0	9,454076652E0
1,802577944E0	-9,571290575E-3	-2,392822644E-3	9,422935486E0	9,422940651E0
1,803773985E0	-2,392822644E-3	4,785645287E-3	9,401400566E0	9,401402089E0
1,804970027E0	-2,392822644E-3	1,435693540E-2	9,403793335E0	9,403804599E0
1,806166069E0	-2,392822644E-3	2,632104978E-2	9,456435204E0	9,456472137E0
1,807362110E0	4,785645287E-3	5,264209956E-2	9,547362328E0	9,547508654E0
1,808558152E0	2,632104978E-2	8,853443712E-2	9,635896683E0	9,636339348E0
1,809754194E0	5,503492057E-2	1,148554832E-1	9,674181938E0	9,675020248E0
1,810950235E0	7,657032460E-2	1,172483116E-1	9,647860527E0	9,648876770E0
1,812146277E0	8,853443712E-2	1,172483116E-1	9,585647583E0	9,586773446E0
1,813342319E0	9,332008660E-2	1,268195957E-1	9,525827408E0	9,527128615E0
1,814538360E0	1,052841991E-1	1,531406492E-1	9,470791817E0	9,472614975E0
1,815734402E0	1,148554832E-1	1,914258152E-1	9,427721024E0	9,430363690E0
1,816930391E0	1,148554832E-1	2,057827413E-1	9,401400566E0	9,404353828E0
1,818126433E0	1,220339537E-1	2,033899277E-1	9,410971642E0	9,413960218E0
1,819322475E0	1,244267747E-1	2,129612118E-1	9,480362892E0	9,483570797E0
1,820518516E0	1,316052526E-1	2,201396823E-1	9,595218658E0	9,598645869E0
1,821714558E0	1,411765367E-1	2,177468538E-1	9,700503349E0	9,703973915E0
1,822910600E0	1,507478207E-1	2,105683982E-1	9,767501831E0	9,770934243E0
1,824106641E0	1,651047617E-1	1,938186288E-1	9,801001549E0	9,804308063E0
1,825302683E0	1,651047617E-1	1,698904037E-1	9,808179855E0	9,811040434E0
1,826498725E0	1,603191197E-1	1,722832322E-1	9,796216011E0	9,799042395E0
1,827694766E0	1,627119333E-1	1,938186288E-1	9,779465675E0	9,782739378E0
1,828890808E0	1,698904037E-1	2,033899277E-1	9,779465675E0	9,783055714E0
1,830086850E0	1,890329868E-1	2,009970993E-1	9,781859398E0	9,785750180E0
1,831282891E0	1,938186288E-1	1,938186288E-1	9,777072906E0	9,780914371E0
1,832478933E0	1,770688742E-1	1,866401732E-1	9,796216011E0	9,799593669E0
1,833674975E0	1,651047617E-1	1,890329868E-1	9,841679573E0	9,844879373E0
1,834871016E0	1,746760458E-1	1,890329868E-1	9,906285286E0	9,909628316E0
1,836067058E0	1,890329868E-1	1,818545163E-1	9,968499184E0	9,971949684E0
1,837263100E0	1,842473447E-1	1,722832322E-1	1,000439167E1	1,000757120E1
1,838459141E0	1,627119333E-1	1,459621787E-1	1,000199890E1	1,000438715E1
1,839655183E0	1,579262912E-1	1,196411327E-1	9,980463028E0	9,982429412E0
1,840851225E0	1,651047617E-1	9,092725813E-2	9,963713646E0	9,965496323E0
1,842047266E0	1,722832322E-1	5,503492057E-2	9,956535339E0	9,958177861E0
1,843243308E0	1,746760458E-1	2,871387079E-2	9,973284721E0	9,974855605E0
1,844439298E0	1,698904037E-1	9,571290575E-3	1,001874828E1	1,002019319E1
1,845635391E0	1,698904037E-1	-4,785645287E-3	1,008574772E1	1,008717962E1
1,846831381E0	1,651047617E-1	-1,435693540E-2	1,015513897E1	1,015649119E1
1,848027423E0	1,555334777E-1	-2,392822690E-2	1,020778179E1	1,020899468E1
1,849223464E0	1,507478207E-1	-3,110669367E-2	1,024367332E1	1,024482971E1
1,850419506E0	1,483550072E-1	-2,871387079E-2	1,026999474E1	1,027110635E1
1,851615548E0	1,483550072E-1	-3,110669367E-2	1,028435135E1	1,028546837E1
1,852811589E0	1,339980662E-1	-4,067798331E-2	1,025803089E1	1,025898669E1
1,854007631E0	1,076770201E-1	-4,785645381E-2	1,019342422E1	1,019410526E1
1,855203673E0	9,810572863E-2	-4,785645381E-2	1,013121128E1	1,013179930E1
1,856399714E0	8,614161611E-2	-5,742774159E-2	1,008096218E1	1,008149378E1
1,857595756E0	7,896314561E-2	-7,178468257E-2	1,004028416E1	1,004085127E1
1,858791798E0	7,178468257E-2	-7,657032460E-2	1,000678444E1	1,000733485E1
1,859987839E0	5,264209956E-2	-7,657032460E-2	9,982855797E0	9,983288239E0
1,861183881E0	5,264209956E-2	-8,374879509E-2	9,970891953E0	9,971382621E0
1,862379923E0	5,264209956E-2	-9,810572863E-2	9,970891953E0	9,971513539E0
1,863575964E0	5,024927482E-2	-1,028913707E-1	9,980463028E0	9,981119871E0
1,864772006E0	4,546362907E-2	-9,332008660E-2	9,997213364E0	9,997752278E0
1,865968048E0	3,349951655E-2	-7,178468257E-2	1,000199890E1	1,000231260E1
1,867164089E0	2,632104978E-2	-5,742774159E-2	9,982855797E0	9,983055675E0
1,868360131E0	2,392822690E-2	-6,460621208E-2	9,939785004E0	9,940023765E0
1,869556173E0	2,632104978E-2	-6,939185411E-2	9,879964828E0	9,880243572E0
1,870752214E0	1,914258115E-2	-6,460621208E-2	9,810572624E0	9,810804025E0
1,871948256E0	7,178467698E-3	-5,503492057E-2	9,748359680E0	9,748517673E0
1,873144298E0	7,178467698E-3	-4,546362907E-2	9,695717812E0	9,695827059E0
1,874340287E0	2,153540403E-2	-2,871387079E-2	9,638289452E0	9,638356282E0
1,875536381E0	2,392822690E-2	-7,178467698E-3	9,590433121E0	9,590465658E0
1,876732319E0	1,914258115E-2	1,196411345E-2	9,576076508E0	9,576103114E0
1,877928256E0	1,674975827E-2	3,349951655E-2	9,583254814E0	9,583328003E0
1,879124454E0	2,392822690E-2	4,785645381E-2	9,600004196E0	9,600153299E0
1,880320496E0	3,828516230E-2	5,264209956E-2	9,619147301E0	9,619367533E0
1,881516537E0	4,546362907E-2	5,503492057E-2	9,635896683E0	9,636161096E0
1,882712579E0	5,742774159E-2	5,264209956E-2	9,635896683E0	9,636211601E0
1,883908621E0	6,221338734E-2	6,221338734E-2	9,623932838E0	9,624335005E0
1,885104662E0	6,221338734E-2	8,135596663E-2	9,611968994E0	9,612514616E0
1,886300704E0	7,178468257E-2	1,028913707E-1	9,600004196E0	9,600823936E0
1,887496746E0	8,853443712E-2	1,268195957E-1	9,583254814E0	9,584502824E0
1,888692787E0	1,004985496E-1	1,363908947E-1	9,559326172E0	9,560827333E0
1,889888829E0	1,100698411E-1	1,531406492E-1	9,554540634E0	9,556401737E0
1,891084871E0	1,172483116E-1	1,818545163E-1	9,566504478E0	9,568951153E0
1,892280912E0	1,220339537E-1	1,938186288E-1	9,576076508E0	9,578815126E0
1,893476954E0	1,220339537E-1	1,914258152E-1	9,576076508E0	9,578767009E0
1,894672996E0	1,220339537E-1	1,938186288E-1	9,585647583E0	9,588383468E0
1,895869037E0	1,292124242E-1	1,962114573E-1	9,607182503E0	9,610054653E0
1,897065079E0	1,363908947E-1	1,986042857E-1	9,619147301E0	9,622164046E0
1,898261121E0	1,339980662E-1	2,081755698E-1	9,626325607E0	9,629508671E0
1,899457162E0	1,339980662E-1	2,201396823E-1	9,647860527E0	9,651301970E0
1,900653204E0	1,459621787E-1	2,201396823E-1	9,690931320E0	9,694530225E0
1,901849246E0	1,507478207E-1	2,129612118E-1	9,738788605E0	9,742283145E0
1,903045287E0	1,555334777E-1	2,153540403E-1	9,784252167E0	9,787857707E0
1,904241277E0	1,579262912E-1	2,153540403E-1	9,824930191E0	9,828558965E0
1,905437319E0	1,674975902E-1	2,105683982E-1	9,863214493E0	9,866883734E0
1,906633360E0	1,698904037E-1	2,153540403E-1	9,887143135E0	9,890947350E0
1,907829402E0	1,531406492E-1	2,321037948E-1	9,889535904E0	9,893444528E0
1,909025444E0	1,411765367E-1	2,416750938E-1	9,891928673E0	9,895887557E0
1,910221485E0	1,339980662E-1	2,440679073E-1	9,894321442E0	9,898238299E0
1,911417527E0	1,363908947E-1	2,464607358E-1	9,894321442E0	9,898330271E0
1,912613569E0	1,435693651E-1	2,368894368E-1	9,906285286E0	9,910157261E0
1,913809610E0	1,363908947E-1	2,201396823E-1	9,918250084E0	9,921630344E0
1,915005652E0	1,316052526E-1	1,938186288E-1	9,939785004E0	9,942545525E0
1,916201694E0	1,292124242E-1	1,579262912E-1	9,973284721E0	9,975371908E0
1,917397735E0	1,316052526E-1	1,292124242E-1	1,001635551E1	1,001805338E1
1,918593777E0	1,339980662E-1	1,220339537E-1	1,006421185E1	1,006584362E1
1,919789819E0	1,411765367E-1	1,076770201E-1	1,009531879E1	1,009688005E1
1,920985860E0	1,531406492E-1	8,374879509E-2	1,010249710E1	1,010400483E1
1,922181902E0	1,627119333E-1	7,896314561E-2	1,010010433E1	1,010172351E1
1,923377944E0	1,698904037E-1	7,417750359E-2	1,009053326E1	1,009223595E1
1,924573985E0	1,794617027E-1	5,503492057E-2	1,007856941E1	1,008031729E1
1,925770027E0	1,818545163E-1	4,307080805E-2	1,005224800E1	1,005398508E1
1,926966069E0	1,674975902E-1	3,828516230E-2	1,004028416E1	1,004175419E1
1,928162110E0	1,531406492E-1	2,153540403E-2	1,003549862E1	1,003669011E1
1,929358152E0	1,483550072E-1	-2,392822644E-3	1,003071213E1	1,003180944E1
1,930554141E0	1,363908947E-1	-1,674975827E-2	1,002831936E1	1,002926080E1
1,931750183E0	1,220339537E-1	-3,828516230E-2	1,002114105E1	1,002195720E1
1,932946225E0	1,172483116E-1	-5,742774159E-2	1,002114105E1	1,002199147E1
1,934142266E0	1,172483116E-1	-6,460621208E-2	1,000917721E1	1,001007240E1
1,935338308E0	1,172483116E-1	-6,699903309E-2	9,982855797E0	9,983769123E0
1,936534350E0	1,244267747E-1	-7,417750359E-2	9,963713646E0	9,964766628E0
1,937730391E0	1,363908947E-1	-7,417750359E-2	9,956535339E0	9,957745766E0
1,938926433E0	1,339980662E-1	-7,417750359E-2	9,946963310E0	9,948142383E0
1,940122475E0	1,339980662E-1	-7,657032460E-2	9,932606697E0	9,933805630E0
1,941318516E0	1,387837082E-1	-7,896314561E-2	9,913464546E0	9,914750395E0
1,942514558E0	1,316052526E-1	-8,853443712E-2	9,891928673E0	9,893200248E0
1,943710600E0	1,172483116E-1	-9,571290761E-2	9,882357597E0	9,883516571E0
1,944906641E0	1,076770201E-1	-1,028913707E-1	9,875179291E0	9,876302294E0
1,946102683E0	1,124626622E-1	-8,853443712E-2	9,863214493E0	9,864252953E0
1,947298725E0	1,100698411E-1	-7,417750359E-2	9,846465111E0	9,847359689E0
1,948494766E0	1,004985496E-1	-7,657032460E-2	9,827322960E0	9,828135099E0
1,949690808E0	1,004985496E-1	-7,178468257E-2	9,801001549E0	9,801779653E0
1,950886850E0	1,124626622E-1	-6,460621208E-2	9,767501831E0	9,768362904E0
1,952082891E0	1,220339537E-1	-5,024927482E-2	9,724431038E0	9,725326539E0
1,953278933E0	1,244267747E-1	-4,307080805E-2	9,667003632E0	9,667900306E0
1,954474975E0	1,268195957E-1	-3,349951655E-2	9,626325607E0	9,627219231E0
1,955671016E0	1,292124242E-1	-1,196411345E-2	9,602396965E0	9,603273737E0
1,956867058E0	1,316052526E-1	4,785645287E-3	9,583254814E0	9,584159623E0
1,958063048E0	1,363908947E-1	1,674975827E-2	9,580862045E0	9,581847450E0
1,959259089E0	1,339980662E-1	3,110669367E-2	9,604789734E0	9,605774770E0
1,960455131E0	1,339980662E-1	5,264209956E-2	9,638289452E0	9,639364617E0
1,961651173E0	1,220339537E-1	6,699903309E-2	9,669396400E0	9,670398539E0
1,962847214E0	1,220339537E-1	7,417750359E-2	9,695717812E0	9,696769486E0
1,964043256E0	1,411765367E-1	9,332008660E-2	9,719645500E0	9,721118665E0
1,965239298E0	1,387837082E-1	1,076770201E-1	9,714859962E0	9,716447877E0
1,966435339E0	1,316052526E-1	1,148554832E-1	9,700503349E0	9,702075910E0
1,967631381E0	1,244267747E-1	1,148554832E-1	9,683753014E0	9,685233411E0
1,968827423E0	1,339980662E-1	1,148554832E-1	9,664610863E0	9,666222136E0
1,970023464E0	1,363908947E-1	1,244267747E-1	9,671789169E0	9,673551066E0
1,971219506E0	1,196411327E-1	1,435693651E-1	9,681360245E0	9,683163861E0
1,972415548E0	1,124626622E-1	1,627119333E-1	9,690931320E0	9,692949648E0
1,973611589E0	1,148554832E-1	1,770688742E-1	9,712467194E0	9,714760118E0
1,974807631E0	1,172483116E-1	1,818545163E-1	9,736394882E0	9,738798875E0
1,976003673E0	1,220339537E-1	1,914258152E-1	9,760323524E0	9,762963251E0
1,977199714E0	1,172483116E-1	1,818545163E-1	9,774680138E0	9,777074717E0
1,978395756E0	1,100698411E-1	1,770688742E-1	9,796216011E0	9,798434410E0
1,979591798E0	1,124626622E-1	1,938186288E-1	9,822537422E0	9,825093125E0
1,980787839E0	1,292124242E-1	2,105683982E-1	9,841679573E0	9,844779922E0
1,981983881E0	1,435693651E-1	2,129612118E-1	9,851250648E0	9,854598114E0
1,983179923E0	1,411765367E-1	2,129612118E-1	9,856036186E0	9,859347473E0
1,984375964E0	1,411765367E-1	2,033899277E-1	9,868000984E0	9,871106407E0
1,985572006E0	1,435693651E-1	1,890329868E-1	9,896714211E0	9,899560485E0
1,986767996E0	1,435693651E-1	1,866401732E-1	9,923035622E0	9,925829067E0
1,987964037E0	1,459621787E-1	1,794617027E-1	9,927821159E0	9,930515819E0
1,989160079E0	1,507478207E-1	1,698904037E-1	9,915857315E0	9,918458244E0
