"Time (s)"	"Acceleration x (m/s^2)"	"Acceleration y (m/s^2)"	"Acceleration z (m/s^2)"	"Absolute acceleration (m/s^2)"
3,550672800E-2	-1,818545163E-1	9,949356079E0	1,074377418E0	1,000884830E1
3,670271800E-2	-1,674975902E-1	9,958928108E0	1,088734269E0	1,001966301E1
3,789875900E-2	-1,698904037E-1	9,966106415E0	1,083948612E0	1,002631958E1
3,909474900E-2	-1,674975902E-1	9,968499184E0	1,086341500E0	1,002891665E1
4,029079100E-2	-1,674975902E-1	9,973284721E0	1,076770186E0	1,003264161E1
4,148678000E-2	-1,674975902E-1	9,982855797E0	1,043270707E0	1,003861938E1
4,268277000E-2	-1,627119333E-1	9,985248566E0	1,019342422E0	1,003846219E1
4,387881100E-2	-1,483550072E-1	9,992427826E0	1,007378340E0	1,004417414E1
4,507480100E-2	-1,316052526E-1	1,000678444E1	9,954141974E-1	1,005703257E1
4,627084300E-2	-1,268195957E-1	1,001635551E1	9,858429432E-1	1,006555251E1
4,746683200E-2	-1,148554832E-1	1,002353382E1	9,858429432E-1	1,007255223E1
4,866282200E-2	-9,332008660E-2	1,003789139E1	9,810572863E-1	1,008615118E1
4,985886400E-2	-7,417750359E-2	1,004506969E1	9,595218897E-1	1,009106584E1
5,105485300E-2	-4,785645381E-2	1,004985523E1	9,403793216E-1	1,009386911E1
5,225089500E-2	-1,914258115E-2	1,005703354E1	9,188438654E-1	1,009893876E1
5,344688400E-2	-9,571290575E-3	1,005703354E1	8,949156404E-1	1,009677618E1
5,464292600E-2	-1,196411345E-2	1,005464077E1	8,757730722E-1	1,009271632E1
5,583891600E-2	-7,178467698E-3	1,006421185E1	8,566305041E-1	1,010060530E1
5,703490500E-2	0,000000000E0	1,008096218E1	8,374879360E-1	1,011569002E1
5,823094700E-2	-2,392822644E-3	1,008814049E1	8,183453679E-1	1,012127825E1
5,942693600E-2	-2,392822644E-3	1,008574772E1	8,087740541E-1	1,011812375E1
6,062297800E-2	1,674975827E-2	1,007856941E1	8,087740541E-1	1,011098202E1
6,181896800E-2	3,110669367E-2	1,007378292E1	7,872386575E-1	1,010454426E1
6,301495700E-2	3,589234129E-2	1,006660461E1	7,561319470E-1	1,009502611E1
6,421099900E-2	3,828516230E-2	1,006181908E1	7,322037220E-1	1,008849796E1
6,540698900E-2	4,307080805E-2	1,005942631E1	7,130611539E-1	1,008475924E1
6,660303000E-2	5,024927482E-2	1,005942631E1	6,939185858E-1	1,008345703E1
6,779902000E-2	5,503492057E-2	1,005942631E1	6,747759581E-1	1,008218275E1
6,899506100E-2	5,982056633E-2	1,004746246E1	6,508477330E-1	1,006869819E1
7,019105100E-2	6,221338734E-2	1,003071213E1	6,269195080E-1	1,005047682E1
7,138704100E-2	6,699903309E-2	1,001396275E1	6,101697683E-1	1,003275864E1
7,258308200E-2	6,939185411E-2	9,999606133E0	6,029912829E-1	1,001801061E1
7,377907200E-2	7,417750359E-2	9,990034103E0	5,838487148E-1	1,000735545E1
7,497511400E-2	8,853443712E-2	9,982855797E0	5,599204898E-1	9,998937902E0
7,617110300E-2	9,332008660E-2	9,968499184E0	5,383850932E-1	9,983463483E0
7,736714500E-2	1,076770201E-1	9,954142570E0	5,240281820E-1	9,968508123E0
7,856313400E-2	1,363908947E-1	9,939785004E0	5,072783828E-1	9,953655597E0
7,975912400E-2	1,531406492E-1	9,918250084E0	4,905286431E-1	9,931553511E0
8,095516600E-2	1,579262912E-1	9,899106979E0	4,689932466E-1	9,911468830E0
8,215115500E-2	1,603191197E-1	9,877572060E0	4,498506486E-1	9,889110052E0
8,334719700E-2	1,627119333E-1	9,858428955E0	4,259224236E-1	9,868966843E0
8,454318600E-2	1,603191197E-1	9,848857880E0	3,948157430E-1	9,858071983E0
8,573922800E-2	1,435693651E-1	9,836894035E0	3,613162339E-1	9,844574437E0
8,693521800E-2	1,292124242E-1	9,824930191E0	3,349951804E-1	9,831488742E0
8,813120700E-2	1,100698411E-1	9,820143700E0	3,110669553E-1	9,825685742E0
8,932724900E-2	8,374879509E-2	9,808179855E0	2,919243574E-1	9,812880605E0
9,052323900E-2	5,503492057E-2	9,781859398E0	2,799602449E-1	9,786019613E0
9,171928000E-2	4,546362907E-2	9,767501831E0	2,751746178E-1	9,771483001E0
9,291527000E-2	4,546362907E-2	9,767501831E0	2,679961324E-1	9,771283482E0
9,411125900E-2	3,349951655E-2	9,760323524E0	2,536391914E-1	9,763676068E0
9,530730100E-2	2,392822690E-2	9,753145218E0	2,488535494E-1	9,756348820E0
9,650329100E-2	2,153540403E-2	9,743574142E0	2,512463629E-1	9,746836696E0
9,769933200E-2	2,153540403E-2	9,736394882E0	2,488535494E-1	9,739598409E0
9,889532200E-2	1,435693540E-2	9,736394882E0	2,584248483E-1	9,739834435E0
1,000913640E-1	4,785645287E-3	9,736394882E0	2,751746178E-1	9,740283840E0
1,012873530E-1	2,392822644E-3	9,726823807E0	2,775674164E-1	9,730783666E0
1,024833430E-1	1,196411345E-2	9,722038269E0	2,799602449E-1	9,726075724E0
1,036793840E-1	1,914258115E-2	9,729216576E0	2,871387303E-1	9,733471645E0
1,048753740E-1	2,392822690E-2	9,729216576E0	3,014956415E-1	9,733916342E0
1,060714160E-1	3,828516230E-2	9,722038269E0	3,134597540E-1	9,727165614E0
1,072674050E-1	5,742774159E-2	9,726823807E0	3,158525825E-1	9,732120127E0
1,084633950E-1	7,178468257E-2	9,734002113E0	3,158525825E-1	9,739389767E0
1,096594360E-1	8,614161611E-2	9,726823807E0	3,110669553E-1	9,732177783E0
1,108554260E-1	9,332008660E-2	9,714859962E0	3,110669553E-1	9,720286795E0
1,120514680E-1	8,374879509E-2	9,710074425E0	3,110669553E-1	9,715416710E0
1,132474570E-1	6,939185411E-2	9,710074425E0	3,038884699E-1	9,715076364E0
1,144434990E-1	5,982056633E-2	9,714859962E0	2,919243574E-1	9,719429120E0
1,156394890E-1	5,742774159E-2	9,714859962E0	2,823530734E-1	9,719131921E0
1,168354780E-1	5,742774159E-2	9,714859962E0	2,823530734E-1	9,719131921E0
1,180315200E-1	6,939185411E-2	9,726823807E0	2,727817893E-1	9,730895462E0
1,192275090E-1	7,896314561E-2	9,729216576E0	2,584248483E-1	9,732968394E0
1,204235510E-1	7,896314561E-2	9,731609344E0	2,464607358E-1	9,735050000E0
1,216195410E-1	7,178468257E-2	9,731609344E0	2,392822653E-1	9,734815328E0
1,228155820E-1	6,460621208E-2	9,729216576E0	2,368894368E-1	9,732314511E0
1,240115720E-1	6,939185411E-2	9,726823807E0	2,344966233E-1	9,729897495E0
1,252075610E-1	6,460621208E-2	9,719645500E0	2,321037948E-1	9,722631063E0
1,264036030E-1	5,503492057E-2	9,722038269E0	2,344966233E-1	9,725021625E0
1,275995930E-1	4,785645381E-2	9,736394882E0	2,440679073E-1	9,739571073E0
1,287956340E-1	4,067798331E-2	9,745966911E0	2,440679073E-1	9,749107389E0
1,299916240E-1	4,307080805E-2	9,745966911E0	2,440679073E-1	9,749117666E0
1,311876140E-1	4,546362907E-2	9,755537987E0	2,679961324E-1	9,759324274E0
1,323836550E-1	4,307080805E-2	9,762716293E0	3,062812984E-1	9,767614486E0
1,335796450E-1	4,785645381E-2	9,757930756E0	3,421736360E-1	9,764045559E0
1,347756860E-1	5,982056633E-2	9,767501831E0	3,732803464E-1	9,774815023E0
1,359716760E-1	6,221338734E-2	9,781859398E0	3,972085714E-1	9,790118408E0
1,371677180E-1	6,699903309E-2	9,791430473E0	4,283152521E-1	9,801023086E0
1,383637070E-1	7,896314561E-2	9,805787086E0	4,546363056E-1	9,816638413E0
1,395596970E-1	8,614161611E-2	9,817750931E0	4,761717021E-1	9,829669028E0
1,407557390E-1	9,092725813E-2	9,817750931E0	5,000999570E-1	9,830900318E0
1,419517280E-1	8,614161611E-2	9,820143700E0	5,072783828E-1	9,833614494E0
1,431477700E-1	7,896314561E-2	9,832108498E0	5,120640397E-1	9,845750467E0
1,443437590E-1	7,896314561E-2	9,832108498E0	5,144568682E-1	9,845875205E0
1,455398010E-1	8,614161611E-2	9,834501266E0	5,096712112E-1	9,848075969E0
1,467357910E-1	8,135596663E-2	9,832108498E0	5,048855543E-1	9,845399216E0
1,479317800E-1	8,135596663E-2	9,822537422E0	4,953143001E-1	9,835354415E0
1,491278220E-1	8,853443712E-2	9,824930191E0	4,881358147E-1	9,837447239E0
1,503238110E-1	8,614161611E-2	9,824930191E0	4,833501875E-1	9,837189692E0
1,515198010E-1	7,657032460E-2	9,829715729E0	4,642075896E-1	9,840968601E0
1,527157910E-1	6,221338734E-2	9,844072342E0	4,474578202E-1	9,854432976E0
1,539118320E-1	3,828516230E-2	9,860821724E0	4,402793646E-1	9,870720174E0
1,551078740E-1	2,392822690E-2	9,877572060E0	4,331009090E-1	9,887091521E0
1,563038640E-1	1,435693540E-2	9,884750366E0	4,235295951E-1	9,893830059E0
1,574999050E-1	-7,178467698E-3	9,896714211E0	3,996013701E-1	9,904780914E0
1,586958950E-1	-3,828516230E-2	9,901499748E0	3,876372576E-1	9,909158676E0
1,598918840E-1	-5,503492057E-2	9,899106979E0	3,900300860E-1	9,906940562E0
1,610879260E-1	-6,460621208E-2	9,906285286E0	3,924229145E-1	9,914265372E0
1,622839160E-1	-7,178468257E-2	9,908679008E0	3,876372576E-1	9,916518309E0
1,634799570E-1	-7,657032460E-2	9,911071777E0	3,780659735E-1	9,918575536E0
1,646759470E-1	-9,810572863E-2	9,918250084E0	3,708875179E-1	9,925667081E0
1,658719890E-1	-1,220339537E-1	9,934999466E0	3,661018610E-1	9,942491501E0
1,670679780E-1	-1,292124242E-1	9,946963310E0	3,613162339E-1	9,954362077E0
1,682639680E-1	-1,411765367E-1	9,954142570E0	3,469592929E-1	9,961187975E0
1,694600090E-1	-1,579262912E-1	9,970891953E0	3,206382394E-1	9,977296023E0
1,706559990E-1	-1,651047617E-1	9,973284721E0	2,991028428E-1	9,979134743E0
1,718520410E-1	-1,818545163E-1	9,970891953E0	2,847459018E-1	9,976614537E0
1,730480300E-1	-1,962114573E-1	9,973284721E0	2,656033039E-1	9,978750031E0
1,742440720E-1	-1,938186288E-1	9,975677490E0	2,536391914E-1	9,980783531E0
1,754400610E-1	-1,818545163E-1	9,968499184E0	2,464607358E-1	9,973203594E0
1,766360510E-1	-1,603191197E-1	9,968499184E0	2,344966233E-1	9,972545656E0
1,778320930E-1	-1,435693651E-1	9,970891953E0	2,297109663E-1	9,974570949E0
1,790280820E-1	-1,339980662E-1	9,963713646E0	2,392822653E-1	9,967487201E0
1,802241240E-1	-1,220339537E-1	9,956535339E0	2,392822653E-1	9,960157843E0
1,814201140E-1	-1,124626622E-1	9,954142570E0	2,297109663E-1	9,957427845E0
1,826161550E-1	-1,052841991E-1	9,946963310E0	2,201396823E-1	9,949956047E0
1,838121450E-1	-1,052841991E-1	9,932606697E0	2,129612118E-1	9,935447299E0
1,850081340E-1	-1,004985496E-1	9,918250084E0	2,057827413E-1	9,920893671E0
1,862041760E-1	-1,004985496E-1	9,901499748E0	2,033899277E-1	9,904098378E0
1,874001660E-1	-1,172483116E-1	9,884750366E0	2,009970993E-1	9,887488903E0
1,885962070E-1	-1,339980662E-1	9,865608215E0	2,009970993E-1	9,868565284E0
1,897921970E-1	-1,363908947E-1	9,844072342E0	2,033899277E-1	9,847117863E0
1,909881860E-1	-1,316052526E-1	9,817750931E0	1,890329868E-1	9,820452472E0
1,921842280E-1	-1,387837082E-1	9,793823242E0	1,722832322E-1	9,796321561E0
1,933802180E-1	-1,459621787E-1	9,781859398E0	1,674975902E-1	9,784382131E0
1,945762590E-1	-1,411765367E-1	9,772287369E0	1,651047617E-1	9,774701572E0
1,957722490E-1	-1,387837082E-1	9,760323524E0	1,555334777E-1	9,762549200E0
1,969682390E-1	-1,483550072E-1	9,748359680E0	1,555334777E-1	9,750729015E0
1,981642800E-1	-1,459621787E-1	9,741181374E0	1,603191197E-1	9,743593882E0
1,993602700E-1	-1,316052526E-1	9,743574142E0	1,555334777E-1	9,745704063E0
2,005563110E-1	-1,244267747E-1	9,741181374E0	1,459621787E-1	9,743069410E0
2,017523010E-1	-1,244267747E-1	9,731609344E0	1,363908947E-1	9,733360413E0
2,029483430E-1	-1,172483116E-1	9,729216576E0	1,292124242E-1	9,730780965E0
2,041443320E-1	-1,124626622E-1	9,729216576E0	1,220339537E-1	9,730631804E0
2,053403220E-1	-1,172483116E-1	9,714859962E0	1,172483116E-1	9,716274925E0
2,065363640E-1	-1,316052526E-1	9,714859962E0	1,220339537E-1	9,716517705E0
2,077323530E-1	-1,435693651E-1	9,726823807E0	1,316052526E-1	9,728773482E0
2,089283950E-1	-1,387837082E-1	9,726823807E0	1,387837082E-1	9,728803791E0
2,101243840E-1	-1,316052526E-1	9,726823807E0	1,531406492E-1	9,728919435E0
2,113203740E-1	-1,411765367E-1	9,726823807E0	1,627119333E-1	9,729208979E0
2,125164160E-1	-1,483550072E-1	9,736394882E0	1,842473447E-1	9,739268021E0
2,137124050E-1	-1,483550072E-1	9,741181374E0	2,009970993E-1	9,744384208E0
2,149084470E-1	-1,507478207E-1	9,738788605E0	2,057827413E-1	9,742128871E0
2,161044360E-1	-1,435693651E-1	9,736394882E0	2,201396823E-1	9,739941424E0
2,173004780E-1	-1,292124242E-1	9,722038269E0	2,392822653E-1	9,725840836E0
2,184964680E-1	-1,244267747E-1	9,717252731E0	2,488535494E-1	9,721235043E0
2,196924570E-1	-1,268195957E-1	9,712467194E0	2,536391914E-1	9,716606148E0
2,208884990E-1	-1,292124242E-1	9,705288887E0	2,632105052E-1	9,709717195E0
2,220844890E-1	-1,316052526E-1	9,702896118E0	2,656033039E-1	9,707422837E0
2,232805300E-1	-1,411765367E-1	9,688538551E0	2,608176768E-1	9,693076701E0
2,244765200E-1	-1,459621787E-1	9,676574707E0	2,584248483E-1	9,681125266E0
2,256725610E-1	-1,363908947E-1	9,664610863E0	2,488535494E-1	9,668776225E0
2,268685510E-1	-1,387837082E-1	9,650253296E0	2,464607358E-1	9,654397572E0
2,280645410E-1	-1,627119333E-1	9,645467758E0	2,512463629E-1	9,650111304E0
2,292605820E-1	-1,794617027E-1	9,640682220E0	2,488535494E-1	9,645563139E0
2,304565720E-1	-1,842473447E-1	9,628718376E0	2,512463629E-1	9,633757802E0
2,316526140E-1	-1,914258152E-1	9,621540070E0	2,584248483E-1	9,626913345E0
2,328486030E-1	-2,081755698E-1	9,626325607E0	2,679961324E-1	9,632305212E0
2,340445930E-1	-2,129612118E-1	9,643074989E0	2,703889608E-1	9,649215404E0
2,352406340E-1	-2,033899277E-1	9,664610863E0	2,751746178E-1	9,670666557E0
2,364366240E-1	-1,962114573E-1	9,674181938E0	2,895315289E-1	9,680502240E0
2,376326660E-1	-2,009970993E-1	9,671789169E0	2,991028428E-1	9,678500301E0
2,388286550E-1	-2,201396823E-1	9,671789169E0	2,991028428E-1	9,678916764E0
2,400246970E-1	-2,297109663E-1	9,676574707E0	2,991028428E-1	9,683921091E0
2,412206860E-1	-2,225325108E-1	9,681360245E0	3,014956415E-1	9,688609628E0
2,424166760E-1	-2,201396823E-1	9,678967476E0	3,038884699E-1	9,686238748E0
2,436127180E-1	-2,249253243E-1	9,674181938E0	2,967100143E-1	9,681344143E0
2,448087070E-1	-2,321037948E-1	9,671789169E0	2,967100143E-1	9,679122622E0
2,460047490E-1	-2,392822653E-1	9,664610863E0	2,967100143E-1	9,672124687E0
2,472007390E-1	-2,416750938E-1	9,657432556E0	2,895315289E-1	9,664793786E0
2,483967280E-1	-2,273181528E-1	9,671789169E0	2,799602449E-1	9,678510062E0
2,495927700E-1	-2,225325108E-1	9,681360245E0	2,799602449E-1	9,687963390E0
2,507887590E-1	-2,249253243E-1	9,671789169E0	2,823530734E-1	9,678523668E0
2,519848010E-1	-2,368894368E-1	9,667003632E0	2,823530734E-1	9,674027035E0
2,531807910E-1	-2,440679073E-1	9,667003632E0	2,895315289E-1	9,674417650E0
2,543768320E-1	-2,344966233E-1	9,664610863E0	3,038884699E-1	9,672230353E0
2,555728220E-1	-2,201396823E-1	9,667003632E0	3,134597540E-1	9,674589279E0
2,567688110E-1	-2,105683982E-1	9,676574707E0	3,158525825E-1	9,684017759E0
2,579648530E-1	-1,986042857E-1	9,678967476E0	3,254238665E-1	9,686472823E0
2,591608430E-1	-1,842473447E-1	9,678967476E0	3,326023519E-1	9,686432925E0
2,603568840E-1	-1,866401732E-1	9,688538551E0	3,349951804E-1	9,696124772E0
2,615528740E-1	-1,938186288E-1	9,678967476E0	3,349951804E-1	9,686702165E0
2,627488640E-1	-1,866401732E-1	9,678967476E0	3,373879790E-1	9,686644238E0
2,639449050E-1	-1,818545163E-1	9,695717812E0	3,493520916E-1	9,703713816E0
2,651408950E-1	-1,842473447E-1	9,702896118E0	3,541377485E-1	9,711104660E0
2,663369360E-1	-1,818545163E-1	9,695717812E0	3,493520916E-1	9,703713816E0
2,675329260E-1	-1,866401732E-1	9,683753014E0	3,493520916E-1	9,691849868E0
2,687289160E-1	-1,866401732E-1	9,686145782E0	3,517449200E-1	9,694327164E0
2,699249570E-1	-1,770688742E-1	9,695717812E0	3,517449200E-1	9,703711752E0
2,711209470E-1	-1,722832322E-1	9,695717812E0	3,421736360E-1	9,703283372E0
2,723169890E-1	-1,770688742E-1	9,688538551E0	3,349951804E-1	9,695945257E0
2,735129780E-1	-1,746760458E-1	9,690931320E0	3,254238665E-1	9,697966914E0
2,747090200E-1	-1,651047617E-1	9,695717812E0	3,158525825E-1	9,702266040E0
2,759050090E-1	-1,555334777E-1	9,688538551E0	3,086741269E-1	9,694702143E0
2,771009990E-1	-1,411765367E-1	9,698110580E0	2,967100143E-1	9,703675411E0
2,782970410E-1	-1,363908947E-1	9,712467194E0	2,895315289E-1	9,717738933E0
2,794930300E-1	-1,387837082E-1	9,712467194E0	2,871387303E-1	9,717701814E0
2,806890720E-1	-1,244267747E-1	9,714859962E0	2,823530734E-1	9,719758709E0
2,818850610E-1	-1,052841991E-1	9,712467194E0	2,727817893E-1	9,716867482E0
2,830810510E-1	-9,332008660E-2	9,714859962E0	2,632105052E-1	9,718873006E0
2,842770930E-1	-8,853443712E-2	9,722038269E0	2,560320199E-1	9,725811989E0
2,854730820E-1	-9,332008660E-2	9,724431038E0	2,440679073E-1	9,727941036E0
2,866691240E-1	-1,052841991E-1	9,726823807E0	2,392822653E-1	9,730336178E0
2,878651140E-1	-1,076770201E-1	9,717252731E0	2,488535494E-1	9,721035082E0
2,890611550E-1	-1,196411327E-1	9,707681656E0	2,536391914E-1	9,711731564E0
2,902571450E-1	-1,363908947E-1	9,702896118E0	2,608176768E-1	9,707359137E0
2,914531340E-1	-1,435693651E-1	9,695717812E0	2,751746178E-1	9,700684363E0
2,926491760E-1	-1,531406492E-1	9,688538551E0	2,871387303E-1	9,694002268E0
2,938451660E-1	-1,651047617E-1	9,674181938E0	2,967100143E-1	9,680139079E0
2,950412070E-1	-1,674975902E-1	9,659825325E0	2,919243574E-1	9,665686762E0
2,962371970E-1	-1,603191197E-1	9,657432556E0	2,799602449E-1	9,662819647E0
2,974332390E-1	-1,507478207E-1	9,657432556E0	2,847459018E-1	9,662805427E0
2,986292280E-1	-1,411765367E-1	9,650253296E0	2,991028428E-1	9,655919532E0
2,998252180E-1	-1,316052526E-1	9,638289452E0	3,134597540E-1	9,644283307E0
3,010212590E-1	-1,220339537E-1	9,631111145E0	3,158525825E-1	9,637061639E0
3,022172490E-1	-1,363908947E-1	9,628718376E0	3,158525825E-1	9,634862889E0
3,034132910E-1	-1,531406492E-1	9,626325607E0	3,182454109E-1	9,632802131E0
3,046092800E-1	-1,555334777E-1	9,628718376E0	3,158525825E-1	9,635152883E0
3,058052700E-1	-1,627119333E-1	9,633503914E0	3,086741269E-1	9,639821189E0
3,070013110E-1	-1,698904037E-1	9,640682220E0	3,086741269E-1	9,647118541E0
3,081973010E-1	-1,627119333E-1	9,638289452E0	3,062812984E-1	9,644527306E0
3,093933430E-1	-1,627119333E-1	9,640682220E0	3,014956415E-1	9,646767773E0
3,105893320E-1	-1,579262912E-1	9,647860527E0	3,038884699E-1	9,653937107E0
3,117853220E-1	-1,555334777E-1	9,650253296E0	3,206382394E-1	9,656831169E0
3,129813640E-1	-1,555334777E-1	9,657432556E0	3,326023519E-1	9,664409892E0
3,141773530E-1	-1,579262912E-1	9,659825325E0	3,349951804E-1	9,666922354E0
3,153733950E-1	-1,579262912E-1	9,669396400E0	3,397808075E-1	9,676653268E0
3,165693840E-1	-1,698904037E-1	9,683753014E0	3,541377485E-1	9,691715469E0
3,177654260E-1	-1,770688742E-1	9,705288887E0	3,637090325E-1	9,713715562E0
3,189614160E-1	-1,603191197E-1	9,726823807E0	3,732803464E-1	9,735303889E0
3,201574050E-1	-1,507478207E-1	9,743574142E0	3,780659735E-1	9,752071362E0
3,213534470E-1	-1,579262912E-1	9,748359680E0	3,852444589E-1	9,757247074E0
3,225494360E-1	-1,627119333E-1	9,750752449E0	3,996013701E-1	9,760293528E0
3,237454780E-1	-1,698904037E-1	9,769894600E0	4,163511395E-1	9,780237805E0
3,249414680E-1	-1,842473447E-1	9,793823242E0	4,378865361E-1	9,805338617E0
3,261374570E-1	-1,866401732E-1	9,812965393E0	4,666004181E-1	9,825825172E0
3,273334990E-1	-1,818545163E-1	9,832108498E0	4,905286431E-1	9,846016805E0
3,285294890E-1	-1,962114573E-1	9,844072342E0	5,072783828E-1	9,859086700E0
3,297255300E-1	-2,105683982E-1	9,858428955E0	5,240281820E-1	9,874591943E0
3,309215200E-1	-2,201396823E-1	9,879964828E0	5,407779217E-1	9,897201991E0
3,321175090E-1	-2,225325108E-1	9,877572060E0	5,479564071E-1	9,895261833E0
3,333135510E-1	-2,153540403E-1	9,868000984E0	5,407779217E-1	9,885153592E0
3,345095410E-1	-2,033899277E-1	9,868000984E0	5,288137794E-1	9,884252875E0
3,357055820E-1	-1,938186288E-1	9,875179291E0	5,216353536E-1	9,890846027E0
3,369015720E-1	-1,866401732E-1	9,879964828E0	5,072783828E-1	9,894739558E0
3,380976140E-1	-1,770688742E-1	9,877572060E0	4,905286431E-1	9,891329614E0
3,392936030E-1	-1,627119333E-1	9,872786522E0	4,594219327E-1	9,884809426E0
3,404895930E-1	-1,411765367E-1	9,841679573E0	4,163511395E-1	9,851494095E0
3,416856340E-1	-1,124626622E-1	9,808179855E0	3,828516304E-1	9,816293358E0
3,428816240E-1	-1,076770201E-1	9,786644936E0	3,493520916E-1	9,793470290E0
3,440776660E-1	-1,100698411E-1	9,762716293E0	3,182454109E-1	9,768522147E0
3,452736550E-1	-9,810572863E-2	9,736394882E0	2,919243574E-1	9,741264285E0
3,464696970E-1	-8,853443712E-2	9,712467194E0	2,679961324E-1	9,716567257E0
3,476656860E-1	-7,896314561E-2	9,690931320E0	2,488535494E-1	9,694447541E0
3,488616760E-1	-6,699903309E-2	9,669396400E0	2,416750938E-1	9,672648162E0
3,500577180E-1	-4,546362907E-2	9,655039787E0	2,273181528E-1	9,657822414E0
3,512537070E-1	-1,674975827E-2	9,643074989E0	2,105683982E-1	9,645388269E0
3,524497490E-1	-2,392822644E-3	9,626325607E0	1,866401732E-1	9,628135073E0
3,536457390E-1	4,785645287E-3	9,621540070E0	1,698904037E-1	9,623041045E0
3,548417280E-1	9,571290575E-3	9,614361763E0	1,674975902E-1	9,615825454E0
3,560377700E-1	1,196411345E-2	9,609575272E0	1,531406492E-1	9,610802885E0
3,572337590E-1	2,392822644E-3	9,619147301E0	1,435693651E-1	9,620218952E0
3,584298010E-1	-1,196411345E-2	9,616754532E0	1,411765367E-1	9,617798172E0
3,596257910E-1	-9,571290575E-3	9,626325607E0	1,363908947E-1	9,627296546E0
3,608218320E-1	-2,392822644E-3	9,643074989E0	1,316052526E-1	9,643973295E0
3,620178220E-1	9,571290575E-3	9,652647018E0	1,339980662E-1	9,653581799E0
3,632138110E-1	2,153540403E-2	9,659825325E0	1,363908947E-1	9,660812158E0
3,644098530E-1	7,178467698E-3	9,669396400E0	1,387837082E-1	9,670394987E0
3,656058430E-1	-9,571290575E-3	9,678967476E0	1,483550072E-1	9,680109102E0
3,668024570E-1	-1,674975827E-2	9,690931320E0	1,651047617E-1	9,692352139E0
3,679978740E-1	-2,153540403E-2	9,700503349E0	1,794617027E-1	9,702187151E0
3,691938640E-1	-3,589234129E-2	9,705288887E0	1,866401732E-1	9,707149695E0
3,703899050E-1	-5,264209956E-2	9,717252731E0	2,009970993E-1	9,719473837E0
3,715858950E-1	-6,221338734E-2	9,726823807E0	2,201396823E-1	9,729513521E0
3,727819360E-1	-5,982056633E-2	9,741181374E0	2,368894368E-1	9,744244951E0
3,739779260E-1	-5,264209956E-2	9,753145218E0	2,608176768E-1	9,756773990E0
3,751739160E-1	-5,264209956E-2	9,765109062E0	2,919243574E-1	9,769613402E0
3,763699570E-1	-6,460621208E-2	9,769894600E0	3,134597540E-1	9,775135369E0
3,775659470E-1	-6,939185411E-2	9,772287369E0	3,349951804E-1	9,778273744E0
3,787619890E-1	-7,657032460E-2	9,781859398E0	3,613162339E-1	9,788829640E0
3,799579780E-1	-9,332008660E-2	9,784252167E0	3,852444589E-1	9,792278202E0
3,811539680E-1	-1,076770201E-1	9,786644936E0	4,067798555E-1	9,795686974E0
3,823500090E-1	-1,148554832E-1	9,784252167E0	4,211367965E-1	9,793984809E0
3,835459990E-1	-1,196411327E-1	9,781859398E0	4,378865361E-1	9,792386425E0
3,847420410E-1	-1,316052526E-1	9,781859398E0	4,402793646E-1	9,792647198E0
3,859380300E-1	-1,411765367E-1	9,791430473E0	4,450650215E-1	9,802557034E0
3,871340720E-1	-1,459621787E-1	9,801001549E0	4,546363056E-1	9,812626075E0
3,883300610E-1	-1,363908947E-1	9,815358162E0	4,426721931E-1	9,826281952E0
3,895260510E-1	-1,268195957E-1	9,827322960E0	4,307080805E-1	9,837574356E0
3,907220930E-1	-1,292124242E-1	9,832108498E0	4,211367965E-1	9,841971833E0
3,919180820E-1	-1,387837082E-1	9,839286804E0	4,043870270E-1	9,848571196E0
3,931141240E-1	-1,531406492E-1	9,848857880E0	3,948157430E-1	9,857957855E0
3,943101140E-1	-1,674975902E-1	9,865608215E0	3,828516304E-1	9,874454733E0
3,955061030E-1	-1,722832322E-1	9,882357597E0	3,804588020E-1	9,891179004E0
3,967021450E-1	-1,722832322E-1	9,889535904E0	3,804588020E-1	9,898350914E0
3,978981340E-1	-1,722832322E-1	9,891928673E0	3,732803464E-1	9,900468302E0
3,990941760E-1	-1,651047617E-1	9,891928673E0	3,637090325E-1	9,899989733E0
4,002901660E-1	-1,603191197E-1	9,891928673E0	3,493520916E-1	9,899394020E0
4,014862070E-1	-1,722832322E-1	9,901499748E0	3,421736360E-1	9,908908193E0
4,026821970E-1	-1,746760458E-1	9,903892517E0	3,421736360E-1	9,911341055E0
4,038782390E-1	-1,674975902E-1	9,906285286E0	3,469592929E-1	9,913774476E0
4,050742280E-1	-1,674975902E-1	9,915857315E0	3,517449200E-1	9,923507758E0
4,062702180E-1	-1,722832322E-1	9,918250084E0	3,541377485E-1	9,926065675E0
4,074662590E-1	-1,818545163E-1	9,915857315E0	3,517449200E-1	9,923760469E0
4,086622490E-1	-1,746760458E-1	9,915857315E0	3,613162339E-1	9,923975385E0
4,098582910E-1	-1,698904037E-1	9,908679008E0	3,756731451E-1	9,917253287E0
4,110542800E-1	-1,674975902E-1	9,908679008E0	3,876372576E-1	9,917673002E0
4,122502700E-1	-1,603191197E-1	9,908679008E0	4,043870270E-1	9,918223167E0
4,134463110E-1	-1,483550072E-1	9,899106979E0	4,211367965E-1	9,909171731E0
4,146423010E-1	-1,363908947E-1	9,901499748E0	4,283152521E-1	9,911697821E0
4,158383430E-1	-1,339980662E-1	9,913464546E0	4,402793646E-1	9,924141308E0
4,170343320E-1	-1,244267747E-1	9,920642853E0	4,570291340E-1	9,931944032E0
4,182303220E-1	-1,124626622E-1	9,915857315E0	4,618147612E-1	9,927242669E0
4,194263640E-1	-1,148554832E-1	9,906285286E0	4,618147612E-1	9,917709051E0
4,206223530E-1	-1,148554832E-1	9,915857315E0	4,642075896E-1	9,927381667E0
4,218183950E-1	-1,076770201E-1	9,927821159E0	4,809573591E-1	9,940047650E0
4,230143840E-1	-1,052841991E-1	9,925428391E0	4,905286431E-1	9,938100012E0
4,242103740E-1	-1,052841991E-1	9,925428391E0	4,833501875E-1	9,937748281E0
4,254064160E-1	-1,076770201E-1	9,918250084E0	4,737788737E-1	9,930143276E0
4,266024050E-1	-1,076770201E-1	9,903892517E0	4,713860750E-1	9,915688890E0
4,277984470E-1	-9,810572863E-2	9,903892517E0	4,737788737E-1	9,915703613E0
4,289944360E-1	-9,332008660E-2	9,906285286E0	4,713860750E-1	9,917933335E0
4,301904260E-1	-8,853443712E-2	9,899106979E0	4,546363056E-1	9,909937008E0
4,313864680E-1	-7,657032460E-2	9,899106979E0	4,378865361E-1	9,909083036E0
4,325824570E-1	-7,417750359E-2	9,894321442E0	4,354937077E-1	9,904178606E0
4,337784990E-1	-7,178468257E-2	9,889535904E0	4,331009090E-1	9,899275218E0
4,349744890E-1	-6,460621208E-2	9,889535904E0	4,259224236E-1	9,898914297E0
4,361704780E-1	-5,503492057E-2	9,889535904E0	4,283152521E-1	9,898959703E0
4,373665200E-1	-4,067798331E-2	9,896714211E0	4,259224236E-1	9,905958650E0
4,385625090E-1	-2,632104978E-2	9,899106979E0	4,139583111E-1	9,907793562E0
4,397585510E-1	-2,632104978E-2	9,879964828E0	4,019941986E-1	9,888174611E0
4,409545410E-1	-2,871387079E-2	9,863214493E0	3,948157430E-1	9,871155155E0
4,421505820E-1	-2,153540403E-2	9,865608215E0	3,924229145E-1	9,873433292E0
4,433465720E-1	-2,871387079E-2	9,863214493E0	3,876372576E-1	9,870870644E0
4,445427700E-1	-2,871387079E-2	9,858428955E0	3,828516304E-1	9,865901952E0
4,457386030E-1	-1,435693540E-2	9,856036186E0	3,852444589E-1	9,863572817E0
4,469345930E-1	-7,178467698E-3	9,853643417E0	3,828516304E-1	9,861080848E0
4,481306340E-1	-1,196411345E-2	9,856036186E0	3,756731451E-1	9,863200432E0
4,493266240E-1	-9,571290575E-3	9,858428955E0	3,780659735E-1	9,865680258E0
4,505226660E-1	-7,178467698E-3	9,856036186E0	3,756731451E-1	9,863195788E0
4,517186550E-1	-7,178467698E-3	9,853643417E0	3,613162339E-1	9,860268229E0
4,529146450E-1	-1,914258115E-2	9,851250648E0	3,397808075E-1	9,857127207E0
4,541106860E-1	-2,871387079E-2	9,848857880E0	3,278166950E-1	9,854353850E0
4,553066760E-1	-2,871387079E-2	9,844072342E0	3,326023519E-1	9,849731422E0
4,565027180E-1	-4,785645381E-2	9,848857880E0	3,326023519E-1	9,854588581E0
4,576987070E-1	-6,460621208E-2	9,858428955E0	3,326023519E-1	9,864249579E0
4,588946970E-1	-5,742774159E-2	9,856036186E0	3,326023519E-1	9,861813808E0
4,600907390E-1	-5,024927482E-2	9,848857880E0	3,493520916E-1	9,855180029E0
4,612867280E-1	-5,024927482E-2	9,841679573E0	3,756731451E-1	9,848975181E0
4,624827700E-1	-5,024927482E-2	9,839286804E0	3,924229145E-1	9,847237458E0
4,636787590E-1	-4,785645381E-2	9,839286804E0	4,043870270E-1	9,847709578E0
4,648748010E-1	-5,264209956E-2	9,846465111E0	4,163511395E-1	9,855404337E0
4,660707910E-1	-5,982056633E-2	9,856036186E0	4,354937077E-1	9,865834104E0
4,672667800E-1	-5,982056633E-2	9,860821724E0	4,522434771E-1	9,871368078E0
4,684628220E-1	-5,503492057E-2	9,865608215E0	4,594219327E-1	9,876452947E0
4,696588110E-1	-4,785645381E-2	9,868000984E0	4,666004181E-1	9,879142150E0
4,708548530E-1	-5,264209956E-2	9,870393753E0	4,618147612E-1	9,881331737E0
4,720508430E-1	-5,742774159E-2	9,879964828E0	4,522434771E-1	9,890476587E0
4,732468320E-1	-4,307080805E-2	9,887143135E0	4,498506486E-1	9,897465336E0
4,744428740E-1	-3,589234129E-2	9,887143135E0	4,498506486E-1	9,897436700E0
4,756388640E-1	-3,828516230E-2	9,882357597E0	4,426721931E-1	9,892341285E0
4,768349050E-1	-4,307080805E-2	9,879964828E0	4,331009090E-1	9,889546830E0
4,780308950E-1	-4,546362907E-2	9,884750366E0	4,211367965E-1	9,893821958E0
4,792268840E-1	-5,024927482E-2	9,899106979E0	4,043870270E-1	9,907490744E0
4,804229260E-1	-4,785645381E-2	9,908679008E0	3,972085714E-1	9,916752724E0
4,816189160E-1	-4,546362907E-2	9,906285286E0	3,948157430E-1	9,914254111E0
4,828149570E-1	-4,785645381E-2	9,913464546E0	3,900300860E-1	9,921249569E0
4,840109470E-1	-5,024927482E-2	9,930213928E0	3,828516304E-1	9,937718502E0
4,852069360E-1	-5,024927482E-2	9,939785004E0	3,661018610E-1	9,946651772E0
4,864029780E-1	-5,982056633E-2	9,946963310E0	3,541377485E-1	9,953445189E0
4,875989680E-1	-7,657032460E-2	9,946963310E0	3,541377485E-1	9,953559949E0
4,887950090E-1	-8,614161611E-2	9,944570541E0	3,469592929E-1	9,950994140E0
4,899909990E-1	-9,092725813E-2	9,937392235E0	3,326023519E-1	9,943372492E0
4,911869890E-1	-9,810572863E-2	9,923035622E0	3,206382394E-1	9,928699289E0
4,923830300E-1	-1,076770201E-1	9,920642853E0	3,158525825E-1	9,926253664E0
4,935790200E-1	-1,172483116E-1	9,911071777E0	3,086741269E-1	9,916570509E0
4,947750610E-1	-1,220339537E-1	9,896714211E0	2,967100143E-1	9,901913011E0
4,959710510E-1	-1,220339537E-1	9,891928673E0	3,014956415E-1	9,897274614E0
4,971670930E-1	-1,244267747E-1	9,882357597E0	3,086741269E-1	9,887960023E0
4,983630820E-1	-1,244267747E-1	9,868000984E0	3,134597540E-1	9,873762326E0
4,995590720E-1	-1,172483116E-1	9,853643417E0	3,230310678E-1	9,859634113E0
5,007551140E-1	-1,244267747E-1	9,846465111E0	3,302095234E-1	9,852786181E0
5,019511030E-1	-1,316052526E-1	9,836894035E0	3,349951804E-1	9,843476316E0
5,031471450E-1	-1,316052526E-1	9,810572624E0	3,469592929E-1	9,817588090E0
5,043431340E-1	-1,292124242E-1	9,793823242E0	3,541377485E-1	9,801075609E0
5,055391760E-1	-1,268195957E-1	9,789037704E0	3,613162339E-1	9,796524476E0
5,067351660E-1	-1,244267747E-1	9,777072906E0	3,780659735E-1	9,785170950E0
5,079311550E-1	-1,244267747E-1	9,777072906E0	3,996013701E-1	9,786026665E0
5,091271970E-1	-1,268195957E-1	9,779465675E0	4,067798555E-1	9,788743635E0
5,103231860E-1	-1,387837082E-1	9,777072906E0	4,187439680E-1	9,787020080E0
5,115192280E-1	-1,411765367E-1	9,762716293E0	4,331009090E-1	9,773338050E0
5,127152180E-1	-1,459621787E-1	9,748359680E0	4,426721931E-1	9,759496917E0
5,139112070E-1	-1,579262912E-1	9,736394882E0	4,426721931E-1	9,747732284E0
5,151072490E-1	-1,531406492E-1	9,738788605E0	4,450650215E-1	9,750155815E0
5,163032390E-1	-1,459621787E-1	9,748359680E0	4,522434771E-1	9,759935736E0
5,174992800E-1	-1,387837082E-1	9,743574142E0	4,450650215E-1	9,754720952E0
5,186952700E-1	-1,363908947E-1	9,724431038E0	4,307080805E-1	9,734920181E0
5,198913110E-1	-1,292124242E-1	9,712467194E0	4,211367965E-1	9,722451905E0
5,210873010E-1	-1,292124242E-1	9,712467194E0	4,163511395E-1	9,722245785E0
5,222832910E-1	-1,339980662E-1	9,717252731E0	4,067798555E-1	9,726686279E0
5,234793320E-1	-1,196411327E-1	9,729216576E0	3,972085714E-1	9,738056471E0
5,246753220E-1	-1,076770201E-1	9,729216576E0	3,900300860E-1	9,737626661E0
5,258713110E-1	-1,028913707E-1	9,729216576E0	3,780659735E-1	9,737103044E0
5,270673530E-1	-9,332008660E-2	9,734002113E0	3,565305769E-1	9,740976329E0
5,282633430E-1	-8,135596663E-2	9,745966911E0	3,397808075E-1	9,752227480E0
5,294593840E-1	-6,460621208E-2	9,772287369E0	3,302095234E-1	9,778078171E0
5,306553740E-1	-4,067798331E-2	9,781859398E0	3,206382394E-1	9,787197600E0
5,318514160E-1	-3,828516230E-2	9,789037704E0	3,086741269E-1	9,793977979E0
5,330474050E-1	-5,264209956E-2	9,803394318E0	2,991028428E-1	9,808097361E0
5,342433950E-1	-5,024927482E-2	9,815358162E0	2,919243574E-1	9,819826916E0
5,354394360E-1	-4,067798331E-2	9,834501266E0	2,943171859E-1	9,838988386E0
5,366354260E-1	-2,871387079E-2	9,856036186E0	3,014956415E-1	9,860688283E0
5,378314680E-1	-1,914258115E-2	9,863214493E0	3,062812984E-1	9,867987373E0
5,390274570E-1	-1,674975827E-2	9,856036186E0	3,086741269E-1	9,860882799E0
5,402234470E-1	-2,392822690E-2	9,856036186E0	2,991028428E-1	9,860602637E0
5,414194890E-1	-3,110669367E-2	9,877572060E0	2,895315289E-1	9,881863484E0
5,426154780E-1	-2,871387079E-2	9,889535904E0	2,895315289E-1	9,893814906E0
5,438115200E-1	-2,153540403E-2	9,889535904E0	2,823530734E-1	9,893589209E0
5,450075090E-1	-2,871387079E-2	9,903892517E0	2,775674164E-1	9,907822927E0
5,462034990E-1	-3,349951655E-2	9,920642853E0	2,751746178E-1	9,924514996E0
5,473995410E-1	-3,349951655E-2	9,927821159E0	2,751746178E-1	9,931690504E0
5,485955300E-1	-3,589234129E-2	9,930213928E0	2,775674164E-1	9,934157266E0
5,497915720E-1	-4,067798331E-2	9,932606697E0	2,871387303E-1	9,936839495E0
5,509875610E-1	-3,589234129E-2	9,937392235E0	2,943171859E-1	9,941814487E0
5,521836030E-1	-1,914258115E-2	9,934999466E0	2,871387303E-1	9,939166438E0
5,533795930E-1	-9,571290575E-3	9,920642853E0	2,727817893E-1	9,924397016E0
5,545755820E-1	-1,914258115E-2	9,920642853E0	2,751746178E-1	9,924476919E0
5,557716240E-1	-3,349951655E-2	9,925428391E0	2,823530734E-1	9,929500199E0
5,569676140E-1	-4,546362907E-2	9,927821159E0	2,799602449E-1	9,931871810E0
5,581636550E-1	-4,785645381E-2	9,932606697E0	2,775674164E-1	9,936599504E0
5,593596450E-1	-4,307080805E-2	9,934999466E0	2,895315289E-1	9,939310740E0
5,605556340E-1	-2,632104978E-2	9,932606697E0	2,967100143E-1	9,937072277E0
5,617516760E-1	-1,435693540E-2	9,927821159E0	2,991028428E-1	9,932336160E0
5,629476660E-1	-1,435693540E-2	9,918250084E0	3,086741269E-1	9,923062560E0
5,641437070E-1	-9,571290575E-3	9,899106979E0	3,086741269E-1	9,903922976E0
5,653396970E-1	-4,785645287E-3	9,875179291E0	2,991028428E-1	9,879709077E0
5,665356860E-1	2,392822644E-3	9,863214493E0	2,943171859E-1	9,867605001E0
5,677317280E-1	4,785645287E-3	9,868000984E0	2,967100143E-1	9,872461859E0
5,689277180E-1	2,392822644E-3	9,863214493E0	2,943171859E-1	9,867605001E0
5,701237590E-1	0,000000000E0	9,841679573E0	2,775674164E-1	9,845592948E0
5,713197490E-1	-2,392822644E-3	9,822537422E0	2,751746178E-1	9,826391413E0
5,725157910E-1	-9,571290575E-3	9,805787086E0	2,775674164E-1	9,809719449E0
5,737117800E-1	-7,178467698E-3	9,793823242E0	2,656033039E-1	9,797426721E0
5,749077700E-1	4,785645287E-3	9,789037704E0	2,536391914E-1	9,792324286E0
5,761038110E-1	7,178467698E-3	9,772287369E0	2,440679073E-1	9,775337390E0
5,772998010E-1	-9,571290575E-3	9,757930756E0	2,392822653E-1	9,760868826E0
5,784958430E-1	-1,435693540E-2	9,755537987E0	2,392822653E-1	9,758482645E0
5,796918320E-1	-1,435693540E-2	9,753145218E0	2,440679073E-1	9,756209146E0
5,808878220E-1	-2,632104978E-2	9,757930756E0	2,560320199E-1	9,761324594E0
5,820838640E-1	-3,589234129E-2	9,762716293E0	2,727817893E-1	9,766592425E0
5,832798530E-1	-3,349951655E-2	9,748359680E0	2,871387303E-1	9,752645145E0
5,844758950E-1	-3,110669367E-2	9,745966911E0	3,038884699E-1	9,750753143E0
5,856718840E-1	-3,110669367E-2	9,765109062E0	3,373879790E-1	9,770985276E0
5,868678740E-1	-2,153540403E-2	9,774680138E0	3,637090325E-1	9,781468184E0
5,880639160E-1	-2,392822690E-2	9,779465675E0	3,780659735E-1	9,786800056E0
5,892599050E-1	-3,589234129E-2	9,791430473E0	3,996013701E-1	9,799646944E0
5,904559470E-1	-3,110669367E-2	9,791430473E0	4,187439680E-1	9,800429830E0
5,916519360E-1	-2,632104978E-2	9,791430473E0	4,187439680E-1	9,800415809E0
5,928479780E-1	-2,392822690E-2	9,786644936E0	4,139583111E-1	9,795425113E0
5,940439680E-1	-1,435693540E-2	9,779465675E0	4,091726840E-1	9,788032351E0
5,952399570E-1	-1,674975827E-2	9,777072906E0	4,043870270E-1	9,785446543E0
5,964359990E-1	-3,589234129E-2	9,777072906E0	3,972085714E-1	9,785204011E0
5,976319890E-1	-4,307080805E-2	9,781859398E0	3,828516304E-1	9,789443485E0
5,988280300E-1	-4,546362907E-2	9,786644936E0	3,613162339E-1	9,793417966E0
6,000240200E-1	-4,307080805E-2	9,784252167E0	3,397808075E-1	9,790244969E0
6,012200090E-1	-3,589234129E-2	9,781859398E0	3,182454109E-1	9,787100780E0
6,024160510E-1	-3,589234129E-2	9,781859398E0	2,967100143E-1	9,786424187E0
6,036120410E-1	-4,307080805E-2	9,777072906E0	2,751746178E-1	9,781039351E0
6,048080820E-1	-5,503492057E-2	9,769894600E0	2,536391914E-1	9,773341403E0
6,060040720E-1	-6,460621208E-2	9,757930756E0	2,321037948E-1	9,760904608E0
6,072000610E-1	-7,417750359E-2	9,753145218E0	1,986042857E-1	9,755449124E0
6,083961030E-1	-8,374879509E-2	9,750752449E0	1,651047617E-1	9,752509768E0
6,095920930E-1	-8,853443712E-2	9,738788605E0	1,387837082E-1	9,740179811E0
6,107881340E-1	-9,332008660E-2	9,731609344E0	1,244267747E-1	9,732852156E0
6,119841240E-1	-1,028913707E-1	9,726823807E0	1,220339537E-1	9,728133443E0
6,131801140E-1	-1,148554832E-1	9,719645500E0	1,220339537E-1	9,721090099E0
6,143761550E-1	-1,339980662E-1	9,717252731E0	1,244267747E-1	9,718973102E0
6,155721450E-1	-1,363908947E-1	9,717252731E0	1,244267747E-1	9,719006387E0
6,167681860E-1	-1,292124242E-1	9,719645500E0	1,268195957E-1	9,721331581E0
6,179641760E-1	-1,268195957E-1	9,726823807E0	1,339980662E-1	9,728573383E0
6,191602180E-1	-1,363908947E-1	9,738788605E0	1,339980662E-1	9,740665349E0
6,203562070E-1	-1,483550072E-1	9,748359680E0	1,316052526E-1	9,750376690E0
6,215521970E-1	-1,483550072E-1	9,748359680E0	1,387837082E-1	9,750476223E0
6,227482390E-1	-1,435693651E-1	9,743574142E0	1,435693651E-1	9,745689375E0
6,239442280E-1	-1,339980662E-1	9,741181374E0	1,387837082E-1	9,743091447E0
6,251402700E-1	-1,387837082E-1	9,743574142E0	1,531406492E-1	9,745765750E0
6,263362590E-1	-1,627119333E-1	9,736394882E0	1,674975902E-1	9,739194829E0
6,275322490E-1	-1,698904037E-1	9,731609344E0	1,722832322E-1	9,734616823E0
6,287282910E-1	-1,818545163E-1	9,738788605E0	1,722832322E-1	9,742009858E0
6,299242800E-1	-2,033899277E-1	9,743574142E0	1,674975902E-1	9,747135988E0
6,311203220E-1	-2,225325108E-1	9,745966911E0	1,651047617E-1	9,749905196E0
6,323163110E-1	-2,368894368E-1	9,741181374E0	1,674975902E-1	9,745500839E0
6,335123530E-1	-2,440679073E-1	9,724431038E0	1,627119333E-1	9,728854163E0
6,347083430E-1	-2,512463629E-1	9,702896118E0	1,483550072E-1	9,707282165E0
6,359043320E-1	-2,536391914E-1	9,688538551E0	1,363908947E-1	9,692817680E0
6,371003740E-1	-2,488535494E-1	9,688538551E0	1,316052526E-1	9,692627471E0
6,382963640E-1	-2,464607358E-1	9,698110580E0	1,292124242E-1	9,702102225E0
6,394923530E-1	-2,344966233E-1	9,698110580E0	1,244267747E-1	9,701743118E0
6,406883950E-1	-2,225325108E-1	9,698110580E0	1,244267747E-1	9,701461311E0
6,418843840E-1	-2,129612118E-1	9,712467194E0	1,244267747E-1	9,715598463E0
6,430804260E-1	-2,009970993E-1	9,734002113E0	1,268195957E-1	9,736903008E0
6,442764160E-1	-1,890329868E-1	9,755537987E0	1,435693651E-1	9,758425439E0
6,454724570E-1	-1,818545163E-1	9,781859398E0	1,507478207E-1	9,784710995E0
6,466684470E-1	-1,866401732E-1	9,786644936E0	1,651047617E-1	9,789816813E0
6,478644360E-1	-1,770688742E-1	9,777072906E0	1,842473447E-1	9,780411806E0
6,490604780E-1	-1,603191197E-1	9,772287369E0	2,033899277E-1	9,775718393E0
6,502564680E-1	-1,603191197E-1	9,767501831E0	2,225325108E-1	9,771351747E0
6,514525090E-1	-1,555334777E-1	9,765109062E0	2,321037948E-1	9,769105273E0
6,526484990E-1	-1,435693651E-1	9,762716293E0	2,536391914E-1	9,767065804E0
6,538444890E-1	-1,387837082E-1	9,760323524E0	2,871387303E-1	9,765532493E0
6,550405300E-1	-1,292124242E-1	9,760323524E0	2,967100143E-1	9,765687277E0
6,562365200E-1	-1,292124242E-1	9,765109062E0	3,062812984E-1	9,770765532E0
6,574325610E-1	-1,244267747E-1	9,765109062E0	3,206382394E-1	9,771163999E0
6,586285510E-1	-1,124626622E-1	9,755537987E0	3,182454109E-1	9,761375385E0
6,598245410E-1	-1,028913707E-1	9,750752449E0	3,134597540E-1	9,756332148E0
6,610205820E-1	-8,853443712E-2	9,748359680E0	3,062812984E-1	9,753571809E0
6,622165720E-1	-6,221338734E-2	9,738788605E0	2,943171859E-1	9,743433512E0
6,634126140E-1	-4,546362907E-2	9,726823807E0	2,895315289E-1	9,731238195E0
6,646086030E-1	-3,110669367E-2	9,710074425E0	2,799602449E-1	9,714159289E0
6,658045930E-1	-1,674975827E-2	9,693324089E0	2,632105052E-1	9,696911478E0
6,670006340E-1	-1,196411345E-2	9,676574707E0	2,560320199E-1	9,679968677E0
6,681966240E-1	0,000000000E0	9,662218094E0	2,560320199E-1	9,665609701E0
6,693926660E-1	-4,785645287E-3	9,655039787E0	2,488535494E-1	9,658247475E0
6,705886550E-1	-1,196411345E-2	9,655039787E0	2,344966233E-1	9,657894444E0
6,717846450E-1	-2,392822644E-3	9,662218094E0	2,225325108E-1	9,664780646E0
6,729806860E-1	9,571290575E-3	9,667003632E0	2,153540403E-1	9,669406817E0
6,741766760E-1	1,435693540E-2	9,669396400E0	2,081755698E-1	9,671647736E0
6,753727180E-1	1,914258115E-2	9,664610863E0	2,009970993E-1	9,666719681E0
6,765687070E-1	3,589234129E-2	9,667003632E0	1,938186288E-1	9,669013038E0
6,777647490E-1	4,785645381E-2	9,671789169E0	1,866401732E-1	9,673708210E0
6,789607390E-1	5,024927482E-2	9,669396400E0	1,818545163E-1	9,671236881E0
6,801567280E-1	3,589234129E-2	9,664610863E0	1,818545163E-1	9,666388284E0
6,813527700E-1	2,153540403E-2	9,662218094E0	1,698904037E-1	9,663735562E0
6,825487590E-1	3,349951655E-2	9,667003632E0	1,579262912E-1	9,668351573E0
6,837448010E-1	3,589234129E-2	9,681360245E0	1,507478207E-1	9,682600341E0
6,849407910E-1	2,871387079E-2	9,695717812E0	1,555334777E-1	9,697007736E0
6,861367800E-1	3,589234129E-2	9,710074425E0	1,579262912E-1	9,711424937E0
6,873328220E-1	3,349951655E-2	9,719645500E0	1,531406492E-1	9,720909573E0
6,885288110E-1	1,914258115E-2	9,719645500E0	1,555334777E-1	9,720908690E0
6,897248530E-1	1,435693540E-2	9,724431038E0	1,555334777E-1	9,725685364E0
6,909208430E-1	1,914258115E-2	9,734002113E0	1,507478207E-1	9,735188159E0
6,921168840E-1	3,349951655E-2	9,745966911E0	1,507478207E-1	9,747190270E0
6,933128740E-1	5,264209956E-2	9,753145218E0	1,507478207E-1	9,754452201E0
6,945088640E-1	4,785645381E-2	9,760323524E0	1,435693651E-1	9,761496694E0
6,957049050E-1	3,349951655E-2	9,767501831E0	1,435693651E-1	9,768614354E0
6,969008950E-1	2,871387079E-2	9,772287369E0	1,507478207E-1	9,773492201E0
6,980968840E-1	1,914258115E-2	9,777072906E0	1,531406492E-1	9,778290910E0
6,992929260E-1	9,571290575E-3	9,779465675E0	1,579262912E-1	9,780745433E0
7,004889160E-1	4,785645287E-3	9,789037704E0	1,603191197E-1	9,790351592E0
7,016849570E-1	2,392822644E-3	9,791430473E0	1,603191197E-1	9,792743163E0
7,028809470E-1	9,571290575E-3	9,781859398E0	1,531406492E-1	9,783062759E0
7,040769890E-1	1,435693540E-2	9,762716293E0	1,483550072E-1	9,763853991E0
7,052729780E-1	2,153540403E-2	9,738788605E0	1,435693651E-1	9,739870606E0
7,064689680E-1	1,914258115E-2	9,719645500E0	1,292124242E-1	9,720523182E0
7,076650090E-1	1,196411345E-2	9,698110580E0	1,244267747E-1	9,698916125E0
7,088609990E-1	1,674975827E-2	9,674181938E0	1,244267747E-1	9,674996576E0
7,100570410E-1	2,632104978E-2	9,662218094E0	1,363908947E-1	9,663216533E0
7,112530300E-1	1,196411345E-2	9,662218094E0	1,555334777E-1	9,663477236E0
7,124490200E-1	0,000000000E0	9,659825325E0	1,651047617E-1	9,661236199E0
7,136450610E-1	0,000000000E0	9,657432556E0	1,794617027E-1	9,659099859E0
7,148410510E-1	-7,178467698E-3	9,667003632E0	2,009970993E-1	9,669095644E0
7,160370930E-1	-1,196411345E-2	9,686145782E0	2,129612118E-1	9,688493987E0
7,172330820E-1	-1,196411345E-2	9,705288887E0	2,297109663E-1	9,708014351E0
7,184290720E-1	-2,153540403E-2	9,724431038E0	2,488535494E-1	9,727638504E0
7,196251140E-1	-5,024927482E-2	9,750752449E0	2,584248483E-1	9,754305804E0
7,208211030E-1	-8,135596663E-2	9,779465675E0	2,727817893E-1	9,783607596E0
7,220171450E-1	-1,052841991E-1	9,812965393E0	2,991028428E-1	9,818087241E0
7,232131340E-1	-1,339980662E-1	9,848857880E0	3,230310678E-1	9,855064997E0
7,244091240E-1	-1,579262912E-1	9,865608215E0	3,421736360E-1	9,872803501E0
7,256051660E-1	-1,722832322E-1	9,877572060E0	3,565305769E-1	9,885505822E0
7,268011550E-1	-1,746760458E-1	9,903892517E0	3,613162339E-1	9,912020386E0
7,279971970E-1	-1,698904037E-1	9,930213928E0	3,637090325E-1	9,938324591E0
7,291931860E-1	-1,627119333E-1	9,937392235E0	3,565305769E-1	9,945117076E0
7,303892280E-1	-1,555334777E-1	9,942177773E0	3,541377485E-1	9,949698642E0
7,315852180E-1	-1,483550072E-1	9,951749802E0	3,517449200E-1	9,959069124E0
7,327812070E-1	-1,531406492E-1	9,963713646E0	3,445664644E-1	9,970845888E0
7,339772490E-1	-1,603191197E-1	9,966106415E0	3,397808075E-1	9,973185564E0
7,351732390E-1	-1,651047617E-1	9,946963310E0	3,326023519E-1	9,953891852E0
7,363692280E-1	-1,698904037E-1	9,925428391E0	3,254238665E-1	9,932214868E0
7,375652700E-1	-1,914258152E-1	9,903892517E0	3,206382394E-1	9,910930315E0
7,387612590E-1	-2,081755698E-1	9,884750366E0	3,086741269E-1	9,891759529E0
7,399573010E-1	-2,129612118E-1	9,860821724E0	2,943171859E-1	9,867511346E0
7,411532910E-1	-2,009970993E-1	9,832108498E0	2,847459018E-1	9,838284280E0
7,423493320E-1	-1,746760458E-1	9,817750931E0	2,751746178E-1	9,823159682E0
7,435453220E-1	-1,627119333E-1	9,791430473E0	2,512463629E-1	9,796004830E0
7,447413110E-1	-1,674975902E-1	9,760323524E0	2,297109663E-1	9,764463010E0
7,459373530E-1	-1,722832322E-1	9,738788605E0	2,153540403E-1	9,742692768E0
7,471333430E-1	-1,674975902E-1	9,710074425E0	2,033899277E-1	9,713648554E0
7,483293840E-1	-1,531406492E-1	9,686145782E0	1,938186288E-1	9,689295012E0
7,495253740E-1	-1,387837082E-1	9,669396400E0	1,842473447E-1	9,672147370E0
7,507213640E-1	-1,292124242E-1	9,657432556E0	1,698904037E-1	9,659791001E0
7,519174050E-1	-1,172483116E-1	9,643074989E0	1,627119333E-1	9,645160320E0
7,531133950E-1	-1,076770201E-1	9,623932838E0	1,651047617E-1	9,625951236E0
7,543094360E-1	-9,332008660E-2	9,604789734E0	1,627119333E-1	9,606621136E0
7,555054260E-1	-7,417750359E-2	9,600004196E0	1,555334777E-1	9,601550580E0
7,567014160E-1	-5,982056633E-2	9,604789734E0	1,579262912E-1	9,606274254E0
7,578974570E-1	-5,024927482E-2	9,602396965E0	1,627119333E-1	9,603906894E0
7,590934470E-1	-3,828516230E-2	9,595218658E0	1,579262912E-1	9,596594582E0
7,602894890E-1	-2,871387079E-2	9,592825890E0	1,603191197E-1	9,594208423E0
7,614854780E-1	-3,589234129E-2	9,597611427E0	1,674975902E-1	9,599140004E0
7,626814680E-1	-5,024927482E-2	9,604789734E0	1,770688742E-1	9,606553191E0
7,638775090E-1	-5,982056633E-2	9,623932838E0	1,986042857E-1	9,626167744E0
7,650734990E-1	-6,460621208E-2	9,655039787E0	2,249253243E-1	9,657875473E0
7,662695410E-1	-7,178468257E-2	9,676574707E0	2,392822653E-1	9,679798919E0
7,674655300E-1	-7,896314561E-2	9,695717812E0	2,464607358E-1	9,699171199E0
7,686615200E-1	-7,657032460E-2	9,722038269E0	2,656033039E-1	9,725967110E0
7,698575610E-1	-8,135596663E-2	9,741181374E0	2,871387303E-1	9,745751998E0
7,710535510E-1	-8,614161611E-2	9,757930756E0	3,014956415E-1	9,762967409E0
7,722495930E-1	-7,417750359E-2	9,781859398E0	3,110669553E-1	9,787085278E0
7,734455820E-1	-6,221338734E-2	9,808179855E0	3,206382394E-1	9,813616635E0
7,746416240E-1	-7,178468257E-2	9,829715729E0	3,206382394E-1	9,835205805E0
7,758376140E-1	-8,853443712E-2	9,848857880E0	3,110669553E-1	9,854166760E0
7,770336030E-1	-1,028913707E-1	9,863214493E0	3,110669553E-1	9,868654894E0
7,782296450E-1	-1,052841991E-1	9,872786522E0	3,134597540E-1	9,878322504E0
7,794256340E-1	-1,028913707E-1	9,889535904E0	3,158525825E-1	9,895113435E0
7,806216760E-1	-9,571290761E-2	9,911071777E0	3,158525825E-1	9,916565312E0
7,818176660E-1	-9,810572863E-2	9,913464546E0	3,086741269E-1	9,918754144E0
7,830136550E-1	-1,100698411E-1	9,915857315E0	2,967100143E-1	9,920906133E0
7,842096970E-1	-1,076770201E-1	9,934999466E0	2,823530734E-1	9,939594156E0
7,854056860E-1	-1,100698411E-1	9,946963310E0	2,727817893E-1	9,951311691E0
7,866017280E-1	-1,148554832E-1	9,951749802E0	2,632105052E-1	9,955892510E0
7,877977180E-1	-1,196411327E-1	9,951749802E0	2,464607358E-1	9,955520128E0
7,889937070E-1	-1,244267747E-1	9,949356079E0	2,392822653E-1	9,953010822E0
7,901897490E-1	-1,220339537E-1	9,942177773E0	2,488535494E-1	9,946040380E0
7,913857390E-1	-1,196411327E-1	9,942177773E0	2,560320199E-1	9,946193506E0
7,925817800E-1	-1,172483116E-1	9,932606697E0	2,560320199E-1	9,936597776E0
7,937777700E-1	-1,148554832E-1	9,920642853E0	2,584248483E-1	9,924672780E0
7,949737590E-1	-1,124626622E-1	9,918250084E0	2,584248483E-1	9,922253574E0
7,961698010E-1	-1,172483116E-1	9,911071777E0	2,488535494E-1	9,914888755E0
7,973657910E-1	-1,100698411E-1	9,903892517E0	2,440679073E-1	9,907510863E0
7,985618320E-1	-9,810572863E-2	9,901499748E0	2,464607358E-1	9,905052493E0
7,997578220E-1	-9,810572863E-2	9,903892517E0	2,464607358E-1	9,907444404E0
8,009538110E-1	-9,092725813E-2	9,901499748E0	2,488535494E-1	9,905043822E0
8,021498530E-1	-8,853443712E-2	9,891928673E0	2,392822653E-1	9,895218402E0
8,033458430E-1	-8,853443712E-2	9,882357597E0	2,297109663E-1	9,885423469E0
8,045418840E-1	-8,853443712E-2	9,884750366E0	2,321037948E-1	9,887871375E0
8,057378740E-1	-7,896314561E-2	9,887143135E0	2,321037948E-1	9,890182340E0
8,069338640E-1	-7,178468257E-2	9,875179291E0	2,249253243E-1	9,878001340E0
8,081299050E-1	-7,417750359E-2	9,872786522E0	2,153540403E-1	9,875413580E0
8,093258950E-1	-7,417750359E-2	9,882357597E0	2,033899277E-1	9,884728699E0
8,105219360E-1	-7,896314561E-2	9,882357597E0	1,962114573E-1	9,884620670E0
8,117179260E-1	-7,417750359E-2	9,872786522E0	1,890329868E-1	9,874874656E0
8,129139160E-1	-7,657032460E-2	9,865608215E0	1,938186288E-1	9,867808983E0
8,141099570E-1	-8,374879509E-2	9,865608215E0	2,081755698E-1	9,868159726E0
8,153059470E-1	-9,571290761E-2	9,868000984E0	2,129612118E-1	9,870762730E0
8,165019890E-1	-1,196411327E-1	9,870393753E0	2,153540403E-1	9,873467689E0
8,176979780E-1	-1,268195957E-1	9,877572060E0	2,153540403E-1	9,880733291E0
8,188940200E-1	-1,339980662E-1	9,887143135E0	2,081755698E-1	9,890242258E0
8,200900090E-1	-1,507478207E-1	9,882357597E0	2,057827413E-1	9,885649353E0
8,212859990E-1	-1,603191197E-1	9,868000984E0	2,225325108E-1	9,871811706E0
8,224820410E-1	-1,674975902E-1	9,853643417E0	2,368894368E-1	9,857913605E0
8,236780300E-1	-1,674975902E-1	9,841679573E0	2,392822653E-1	9,846012810E0
8,248740720E-1	-1,627119333E-1	9,829715729E0	2,488535494E-1	9,834211436E0
8,260700610E-1	-1,651047617E-1	9,822537422E0	2,703889608E-1	9,827645251E0
8,272660510E-1	-1,627119333E-1	9,827322960E0	2,919243574E-1	9,833004198E0
8,284620930E-1	-1,579262912E-1	9,832108498E0	2,943171859E-1	9,837780280E0
8,296580820E-1	-1,555334777E-1	9,829715729E0	2,919243574E-1	9,835279447E0
8,308540720E-1	-1,603191197E-1	9,824930191E0	2,967100143E-1	9,830716775E0
8,320501140E-1	-1,674975902E-1	9,820143700E0	3,086741269E-1	9,826421395E0
8,332461030E-1	-1,627119333E-1	9,810572624E0	3,158525825E-1	9,817004291E0
8,344421450E-1	-1,555334777E-1	9,808179855E0	3,158525825E-1	9,814496706E0
8,356381340E-1	-1,411765367E-1	9,808179855E0	3,230310678E-1	9,814513333E0
8,368341240E-1	-1,339980662E-1	9,812965393E0	3,349951804E-1	9,819596074E0
8,380301660E-1	-1,244267747E-1	9,817750931E0	3,445664644E-1	9,824583523E0
8,392261550E-1	-1,172483116E-1	9,812965393E0	3,421736360E-1	9,819629309E0
8,404221970E-1	-1,148554832E-1	9,808179855E0	3,445664644E-1	9,814902440E0
8,416181860E-1	-1,076770201E-1	9,805787086E0	3,445664644E-1	9,812429912E0
8,428142280E-1	-1,052841991E-1	9,808179855E0	3,421736360E-1	9,814711388E0
8,440102180E-1	-9,092725813E-2	9,808179855E0	3,421736360E-1	9,814567878E0
8,452062070E-1	-8,853443712E-2	9,812965393E0	3,445664644E-1	9,819412111E0
8,464022490E-1	-9,092725813E-2	9,810572624E0	3,421736360E-1	9,816959090E0
8,475982390E-1	-7,896314561E-2	9,798608780E0	3,421736360E-1	9,804899387E0
8,487942800E-1	-7,178468257E-2	9,801001549E0	3,469592929E-1	9,807403589E0
8,499902700E-1	-6,939185411E-2	9,815358162E0	3,517449200E-1	9,821903867E0
8,511862590E-1	-5,264209956E-2	9,822537422E0	3,517449200E-1	9,828974366E0
8,523823010E-1	-3,589234129E-2	9,844072342E0	3,421736360E-1	9,850082808E0
8,535782910E-1	-3,589234129E-2	9,858428955E0	3,421736360E-1	9,864430674E0
8,547743320E-1	-3,828516230E-2	9,875179291E0	3,397808075E-1	9,881097246E0
8,559703220E-1	-3,589234129E-2	9,899106979E0	3,206382394E-1	9,904363489E0
8,571663640E-1	-3,589234129E-2	9,913464546E0	3,038884699E-1	9,918186113E0
8,583623530E-1	-4,067798331E-2	9,915857315E0	2,919243574E-1	9,920236934E0
8,595583430E-1	-4,307080805E-2	9,915857315E0	2,775674164E-1	9,919834931E0
8,607543840E-1	-4,546362907E-2	9,918250084E0	2,679961324E-1	9,921974279E0
8,619503740E-1	-3,828516230E-2	9,920642853E0	2,536391914E-1	9,923958545E0
8,631463640E-1	-3,110669367E-2	9,930213928E0	2,416750938E-1	9,933203065E0
8,643424050E-1	-2,392822690E-2	9,930213928E0	2,416750938E-1	9,933183179E0
8,655383950E-1	-9,571290575E-3	9,915857315E0	2,416750938E-1	9,918806619E0
8,667344360E-1	7,178467698E-3	9,918250084E0	2,392822653E-1	9,921138657E0
8,679304260E-1	1,914258115E-2	9,915857315E0	2,416750938E-1	9,918820473E0
8,691264160E-1	1,914258115E-2	9,901499748E0	2,536391914E-1	9,904766355E0
8,703224570E-1	1,674975827E-2	9,891928673E0	2,656033039E-1	9,895507998E0
8,715184470E-1	1,674975827E-2	9,887143135E0	2,608176768E-1	9,890596837E0
8,727144890E-1	2,153540403E-2	9,884750366E0	2,488535494E-1	9,887905828E0
8,739104780E-1	3,110669367E-2	9,875179291E0	2,440679073E-1	9,878243912E0
8,751064680E-1	5,024927482E-2	9,870393753E0	2,344966233E-1	9,873306766E0
8,763025090E-1	6,221338734E-2	9,853643417E0	2,297109663E-1	9,856516942E0
8,774984990E-1	5,264209956E-2	9,836894035E0	2,368894368E-1	9,839886791E0
8,786945410E-1	3,349951655E-2	9,844072342E0	2,536391914E-1	9,847396373E0
8,798905300E-1	9,571290575E-3	9,853643417E0	2,584248483E-1	9,857036249E0
8,810865200E-1	-7,178467698E-3	9,856036186E0	2,608176768E-1	9,859489170E0
8,822825610E-1	-1,435693540E-2	9,858428955E0	2,679961324E-1	9,862081399E0
8,834785510E-1	-1,196411345E-2	9,863214493E0	2,727817893E-1	9,866993117E0
8,846745930E-1	-9,571290575E-3	9,868000984E0	2,775674164E-1	9,871908564E0
8,858705820E-1	-1,196411345E-2	9,870393753E0	2,799602449E-1	9,874370548E0
8,870665720E-1	-2,392822644E-3	9,879964828E0	2,703889608E-1	9,883664347E0
8,882626140E-1	2,392822644E-3	9,894321442E0	2,560320199E-1	9,897633804E0
8,894586030E-1	-7,178467698E-3	9,901499748E0	2,488535494E-1	9,904629063E0
8,906546450E-1	-1,674975827E-2	9,903892517E0	2,464607358E-1	9,906972819E0
8,918506340E-1	-2,392822690E-2	9,894321442E0	2,416750938E-1	9,897301461E0
8,930466760E-1	-2,632104978E-2	9,894321442E0	2,297109663E-1	9,897022619E0
8,942426660E-1	-3,110669367E-2	9,899106979E0	2,105683982E-1	9,901395137E0
8,954386550E-1	-4,307080805E-2	9,906285286E0	2,057827413E-1	9,908516024E0
8,966346970E-1	-4,546362907E-2	9,915857315E0	2,009970993E-1	9,917998441E0
8,978306860E-1	-4,785645381E-2	9,920642853E0	1,914258152E-1	9,922604935E0
8,990267280E-1	-5,982056633E-2	9,915857315E0	1,914258152E-1	9,917885291E0
9,002227180E-1	-7,417750359E-2	9,906285286E0	1,890329868E-1	9,908366361E0
9,014187070E-1	-7,896314561E-2	9,899106979E0	1,794617027E-1	9,901048463E0
9,026147490E-1	-7,657032460E-2	9,894321442E0	1,746760458E-1	9,896159433E0
9,038107390E-1	-6,699903309E-2	9,884750366E0	1,770688742E-1	9,886563208E0
9,050067800E-1	-6,699903309E-2	9,870393753E0	1,818545163E-1	9,872296226E0
9,062027700E-1	-7,896314561E-2	9,863214493E0	1,746760458E-1	9,865077143E0
9,073987590E-1	-8,135596663E-2	9,860821724E0	1,651047617E-1	9,862539402E0
9,085948010E-1	-8,135596663E-2	9,851250648E0	1,579262912E-1	9,852852320E0
9,097907910E-1	-9,092725813E-2	9,839286804E0	1,483550072E-1	9,840825260E0
9,109868320E-1	-9,810572863E-2	9,834501266E0	1,339980662E-1	9,835903384E0
9,121828220E-1	-1,100698411E-1	9,822537422E0	1,148554832E-1	9,823825556E0
9,133788110E-1	-1,148554832E-1	9,817750931E0	1,076770201E-1	9,819013161E0
9,145748530E-1	-1,100698411E-1	9,836894035E0	1,124626622E-1	9,838152646E0
9,157708430E-1	-1,004985496E-1	9,836894035E0	1,244267747E-1	9,838194257E0
9,169668840E-1	-9,810572863E-2	9,824930191E0	1,292124242E-1	9,826269579E0
9,181628740E-1	-1,148554832E-1	9,812965393E0	1,339980662E-1	9,814552311E0
9,193588640E-1	-1,292124242E-1	9,808179855E0	1,507478207E-1	9,810189235E0
9,205549050E-1	-1,339980662E-1	9,810572624E0	1,674975902E-1	9,812917310E0
9,217508950E-1	-1,363908947E-1	9,803394318E0	1,818545163E-1	9,806029456E0
9,229469360E-1	-1,459621787E-1	9,801001549E0	2,033899277E-1	9,804198273E0
9,241429260E-1	-1,483550072E-1	9,808179855E0	2,081755698E-1	9,811510503E0
9,253389160E-1	-1,363908947E-1	9,810572624E0	2,009970993E-1	9,813579241E0
9,265349570E-1	-1,339980662E-1	9,801001549E0	2,009970993E-1	9,803978105E0
9,277309470E-1	-1,244267747E-1	9,791430473E0	2,057827413E-1	9,794383047E0
9,289269890E-1	-1,100698411E-1	9,777072906E0	2,081755698E-1	9,779908336E0
9,301229780E-1	-1,244267747E-1	9,769894600E0	2,009970993E-1	9,772754082E0
9,313189680E-1	-1,435693651E-1	9,755537987E0	1,914258152E-1	9,758472084E0
9,325150090E-1	-1,435693651E-1	9,743574142E0	1,890329868E-1	9,746465139E0
9,337109990E-1	-1,435693651E-1	9,741181374E0	1,842473447E-1	9,743981414E0
9,349070410E-1	-1,603191197E-1	9,731609344E0	1,746760458E-1	9,734497130E0
9,361030300E-1	-1,794617027E-1	9,731609344E0	1,651047617E-1	9,734664171E0
9,372990200E-1	-1,914258152E-1	9,719645500E0	1,555334777E-1	9,722774458E0
9,384950610E-1	-2,033899277E-1	9,707681656E0	1,579262912E-1	9,711096298E0
9,396910510E-1	-1,962114573E-1	9,695717812E0	1,651047617E-1	9,699108330E0
9,408870930E-1	-1,770688742E-1	9,683753014E0	1,579262912E-1	9,686659204E0
9,420830820E-1	-1,674975902E-1	9,676574707E0	1,579262912E-1	9,679312693E0
9,432790720E-1	-1,651047617E-1	9,681360245E0	1,794617027E-1	9,684430922E0
9,444751140E-1	-1,603191197E-1	9,688538551E0	2,057827413E-1	9,692049733E0
9,456711030E-1	-1,507478207E-1	9,700503349E0	2,201396823E-1	9,704171867E0
9,468671450E-1	-1,459621787E-1	9,700503349E0	2,297109663E-1	9,704320549E0
9,480631340E-1	-1,459621787E-1	9,681360245E0	2,368894368E-1	9,685357905E0
9,492591240E-1	-1,363908947E-1	9,667003632E0	2,368894368E-1	9,670867505E0
9,504551660E-1	-1,316052526E-1	9,659825325E0	2,321037948E-1	9,663509581E0
9,516511550E-1	-1,268195957E-1	9,655039787E0	2,153540403E-1	9,658273855E0
9,528471970E-1	-1,148554832E-1	9,664610863E0	1,890329868E-1	9,667141686E0
9,540431860E-1	-1,004985496E-1	9,669396400E0	1,674975902E-1	9,671369197E0
9,552391760E-1	-8,614161611E-2	9,659825325E0	1,459621787E-1	9,661312056E0
9,564352180E-1	-8,374879509E-2	9,650253296E0	1,268195957E-1	9,651449930E0
9,576312070E-1	-7,417750359E-2	9,645467758E0	9,810572863E-2	9,646251879E0
9,588272490E-1	-5,264209956E-2	9,645467758E0	7,178468257E-2	9,645878524E0
9,600232390E-1	-3,110669367E-2	9,635896683E0	5,982056633E-2	9,636132575E0
9,612192800E-1	-1,674975827E-2	9,621540070E0	4,307080805E-2	9,621651052E0
9,624152700E-1	-2,392822644E-3	9,616754532E0	2,871387079E-2	9,616797697E0
9,636112590E-1	2,392822690E-2	9,611968994E0	1,196411345E-2	9,612006224E0
9,648073010E-1	5,264209956E-2	9,597611427E0	-9,571290575E-3	9,597760567E0
9,660032910E-1	6,699903309E-2	9,578469276E0	-2,632104978E-2	9,578739758E0
9,671992800E-1	8,135596663E-2	9,566504478E0	-3,828516230E-2	9,566927014E0
9,683953220E-1	9,332008660E-2	9,556933403E0	-4,307080805E-2	9,557486061E0
9,695913110E-1	8,614161611E-2	9,549755096E0	-5,264209956E-2	9,550288685E0
9,707873530E-1	7,417750359E-2	9,537791252E0	-6,460621208E-2	9,538298498E0
9,719833430E-1	7,417750359E-2	9,533005714E0	-6,939185411E-2	9,533546847E0
9,731793320E-1	7,417750359E-2	9,533005714E0	-6,939185411E-2	9,533546847E0
9,743753740E-1	7,417750359E-2	9,518648148E0	-7,178468257E-2	9,519207840E0
9,755713640E-1	6,221338734E-2	9,494720459E0	-7,417750359E-2	9,495214026E0
9,767674050E-1	4,785645381E-2	9,468399048E0	-6,699903309E-2	9,468757027E0
9,779633950E-1	3,349951655E-2	9,444471359E0	-6,460621208E-2	9,444751740E0
9,791593840E-1	1,914258115E-2	9,425328255E0	-6,460621208E-2	9,425569113E0
9,803554260E-1	1,196411345E-2	9,413364410E0	-5,742774159E-2	9,413547185E0
9,815514160E-1	9,571290575E-3	9,403793335E0	-4,785645381E-2	9,403919977E0
9,827474570E-1	-2,392822644E-3	9,396614075E0	-3,589234129E-2	9,396682928E0
9,839434470E-1	-2,153540403E-2	9,377471924E0	-4,067798331E-2	9,377584879E0
9,851394360E-1	-4,307080805E-2	9,351150513E0	-5,024927482E-2	9,351384710E0
9,863354780E-1	-6,460621208E-2	9,312865257E0	-5,982056633E-2	9,313281471E0
9,875314680E-1	-7,178468257E-2	9,267401695E0	-7,178468257E-2	9,267957718E0
9,887275090E-1	-8,853443712E-2	9,229117393E0	-7,896314561E-2	9,229879814E0
9,899234990E-1	-1,172483116E-1	9,195617676E0	-8,853443712E-2	9,196791286E0
9,911194890E-1	-1,507478207E-1	9,150154114E0	-1,028913707E-1	9,151974205E0
9,923155300E-1	-1,794617027E-1	9,078369141E0	-1,148554832E-1	9,080869151E0
9,935115200E-1	-2,033899277E-1	8,999405861E0	-1,244267747E-1	9,002563820E0
9,947075610E-1	-2,297109663E-1	8,930013657E0	-1,483550072E-1	8,934199474E0
9,959035510E-1	-2,751746178E-1	8,858229637E0	-1,818545163E-1	8,864368248E0
9,970995930E-1	-3,326023519E-1	8,774480820E0	-2,009970993E-1	8,783082478E0
9,982955820E-1	-3,756731451E-1	8,673981667E0	-2,105683982E-1	8,684666218E0
9,994915720E-1	-4,067798555E-1	8,578269005E0	-2,249253243E-1	8,590853297E0
1,000687614E0	-4,354937077E-1	8,494520187E0	-2,392822653E-1	8,509041308E0
1,001883603E0	-4,450650215E-1	8,403593063E0	-2,368894368E-1	8,418703930E0
1,003079645E0	-4,139583111E-1	8,312665939E0	-2,249253243E-1	8,326005519E0
1,004275634E0	-3,708875179E-1	8,214560509E0	-2,201396823E-1	8,225875235E0
1,005471624E0	-3,684946895E-1	8,116454124E0	-2,368894368E-1	8,128267497E0
1,006667666E0	-3,996013701E-1	8,027919769E0	-2,751746178E-1	8,042567883E0
1,007863655E0	-4,187439680E-1	7,946564198E0	-3,302095234E-1	7,964437669E0
1,009059645E0	-4,354937077E-1	7,860422611E0	-3,876372576E-1	7,882015037E0
1,010255686E0	-4,570291340E-1	7,779066563E0	-4,474578202E-1	7,805316824E0
1,011451676E0	-4,809573591E-1	7,704888821E0	-5,240281820E-1	7,737650629E0
1,012647718E0	-5,192425251E-1	7,625925541E0	-6,125625968E-1	7,668088816E0
1,013843707E0	-5,670989752E-1	7,532605648E0	-6,915257573E-1	7,585509671E0
1,015039697E0	-6,317051649E-1	7,427321434E0	-7,728816867E-1	7,494097758E0
1,016235739E0	-7,034898400E-1	7,307680130E0	-8,949156404E-1	7,395806977E0
1,017431728E0	-7,776673436E-1	7,176074982E0	-1,055234790E0	7,294815906E0
1,018627770E0	-8,685946465E-1	7,058826923E0	-1,222732425E0	7,216409687E0
1,019823759E0	-9,906286001E-1	6,970292568E0	-1,368694544E0	7,172143910E0
1,021019801E0	-1,158126116E0	6,900900364E0	-1,471585870E0	7,150471796E0
1,022215791E0	-1,359123230E0	6,838686943E0	-1,529013634E0	7,138118642E0
1,023411780E0	-1,596012712E0	6,778866768E0	-1,538584948E0	7,132147985E0
1,024607822E0	-1,873580098E0	6,709474564E0	-1,476371527E0	7,120886475E0
1,025803811E0	-2,232503414E0	6,563512325E0	-1,330409408E0	7,059302709E0
1,026999801E0	-2,620140791E0	6,336194515E0	-1,028913736E0	6,933337016E0
1,028195843E0	-2,926422119E0	6,171089649E0	-6,508477330E-1	6,860750444E0
1,029391832E0	-3,182454109E0	6,123233318E0	-3,637090325E-1	6,910447503E0
1,030587874E0	-3,407379389E0	6,132804394E0	-1,411765367E-1	7,017225580E0
1,031783864E0	-3,598805189E0	6,144768715E0	3,349951655E-2	7,121144821E0
1,032979853E0	-3,761517286E0	6,159125328E0	1,579262912E-1	7,218640995E0
1,034175895E0	-3,883551121E0	6,183053493E0	2,632105052E-1	7,306257563E0
1,035371884E0	-3,981656790E0	6,175875187E0	3,493520916E-1	7,356430656E0
1,036567926E0	-4,098905087E0	6,099305153E0	3,828516304E-1	7,358608675E0
1,037763916E0	-4,165904045E0	5,986842155E0	3,541377485E-1	7,302222200E0
1,038959957E0	-4,096512318E0	5,876772404E0	3,876372576E-1	7,174129194E0
1,040155947E0	-3,897907972E0	5,764309883E0	4,929214716E-1	6,975953452E0
1,041351936E0	-3,605983734E0	5,644668579E0	5,982056856E-1	6,724823574E0
1,042547978E0	-3,268595695E0	5,508277893E0	7,178468108E-1	6,445164638E0
1,043743968E0	-2,947957516E0	5,307280540E0	7,585247755E-1	6,118254660E0
1,044939957E0	-2,392822742E0	4,766502857E0	6,029912829E-1	5,367378192E0
1,046135999E0	-1,428515077E0	3,840480328E0	5,910272002E-1	4,139958650E0
1,047331989E0	-6,867401004E-1	3,019742250E0	7,106683254E-1	3,177342395E0
1,048528030E0	-2,967100143E-1	2,079362869E0	5,910272002E-1	2,181994484E0
1,049724020E0	-7,896314561E-2	1,103091240E0	4,450650215E-1	1,192110874E0
1,050920009E0	-6,699903309E-2	5,694918036E-1	2,177468538E-1	6,133705872E-1
1,052116051E0	-5,264209956E-2	2,895315289E-1	6,699903309E-2	3,018088258E-1
1,053312041E0	-5,264209956E-2	1,459621787E-1	3,349951655E-2	1,587399315E-1
1,054508082E0	-6,699903309E-2	5,982056633E-2	-1,196411345E-2	9,061186789E-2
1,055704072E0	-6,939185411E-2	9,571290575E-3	-1,914258115E-2	7,261733562E-2
1,056900061E0	-6,699903309E-2	-9,571290575E-3	-3,589234129E-2	7,660770328E-2
1,058096103E0	-5,982056633E-2	-2,392822690E-2	-3,349951655E-2	7,261733820E-2
1,059292093E0	-5,024927482E-2	-3,110669367E-2	-4,067798331E-2	7,174478613E-2
1,060488134E0	-5,024927482E-2	-2,632104978E-2	-3,828516230E-2	6,843640065E-2
1,061684124E0	-4,067798331E-2	-2,392822690E-2	-3,349951655E-2	5,787465748E-2
1,062880166E0	-3,589234129E-2	-1,914258115E-2	-2,871387079E-2	4,979141444E-2
1,064076155E0	-4,307080805E-2	-7,178467698E-3	-2,632104978E-2	5,098453262E-2
1,065272145E0	-4,785645381E-2	-1,435693540E-2	-3,349951655E-2	6,015462886E-2
1,066468186E0	-4,785645381E-2	-2,871387079E-2	-3,589234129E-2	6,635500516E-2
1,067664176E0	-4,785645381E-2	-3,349951655E-2	-3,828516230E-2	6,984419398E-2
1,068860218E0	-5,982056633E-2	-2,871387079E-2	-5,264209956E-2	8,470051462E-2
1,070056207E0	-6,221338734E-2	-2,871387079E-2	-5,982056633E-2	9,095873843E-2
1,071252197E0	-6,221338734E-2	-2,392822690E-2	-6,221338734E-2	9,117878685E-2
1,072448239E0	-6,460621208E-2	-2,153540403E-2	-5,742774159E-2	8,908244367E-2
1,073644228E0	-6,699903309E-2	-2,632104978E-2	-5,024927482E-2	8,778757154E-2
1,074840218E0	-6,699903309E-2	-2,632104978E-2	-5,024927482E-2	8,778757154E-2
1,076036259E0	-5,742774159E-2	-1,914258115E-2	-4,307080805E-2	7,429319231E-2
1,077232249E0	-5,742774159E-2	-2,392822690E-2	-3,828516230E-2	7,304970362E-2
1,078428291E0	-6,221338734E-2	-3,349951655E-2	-3,828516230E-2	8,036464910E-2
1,079624280E0	-5,742774159E-2	-3,349951655E-2	-3,828516230E-2	7,671972866E-2
1,080820270E0	-5,982056633E-2	-2,871387079E-2	-2,871387079E-2	7,230126491E-2
1,082016311E0	-6,460621208E-2	-3,110669367E-2	-2,153540403E-2	7,486896992E-2
1,083212301E0	-6,221338734E-2	-3,589234129E-2	-3,349951655E-2	7,925265507E-2
1,084408343E0	-6,460621208E-2	-3,110669367E-2	-3,589234129E-2	8,018634044E-2
1,085604332E0	-6,699903309E-2	-2,632104978E-2	-3,349951655E-2	7,939701320E-2
1,086800322E0	-6,460621208E-2	-1,914258115E-2	-4,067798331E-2	7,870895361E-2
1,087996364E0	-6,699903309E-2	-1,674975827E-2	-4,785645381E-2	8,402181270E-2
1,089192353E0	-7,417750359E-2	-2,153540403E-2	-5,024927482E-2	9,214697654E-2
1,090388395E0	-6,939185411E-2	-1,914258115E-2	-4,785645381E-2	8,644019898E-2
1,091584384E0	-6,221338734E-2	-2,392822690E-2	-3,828516230E-2	7,686884453E-2
1,092780374E0	-5,503492057E-2	-2,871387079E-2	-3,349951655E-2	7,053755360E-2
1,093976416E0	-5,264209956E-2	-2,632104978E-2	-3,349951655E-2	6,772153215E-2
1,095172405E0	-5,982056633E-2	-2,632104978E-2	-4,307080805E-2	7,827127394E-2
1,096368447E0	-5,982056633E-2	-2,871387079E-2	-3,828516230E-2	7,660770316E-2
1,097564436E0	-6,460621208E-2	-2,632104978E-2	-2,632104978E-2	7,456244338E-2
1,098760426E0	-6,460621208E-2	-2,153540403E-2	-1,914258115E-2	7,074019140E-2
1,099956468E0	-5,503492057E-2	-3,110669367E-2	-2,392822690E-2	6,759459236E-2
1,101152457E0	-4,067798331E-2	-3,349951655E-2	-3,110669367E-2	6,119266563E-2
1,102348499E0	-4,546362907E-2	-2,632104978E-2	-3,589234129E-2	6,362389011E-2
1,103544489E0	-5,264209956E-2	-2,392822690E-2	-3,349951655E-2	6,682790059E-2
1,104740478E0	-4,546362907E-2	-2,632104978E-2	-3,110669367E-2	6,105215492E-2
1,105936520E0	-3,589234129E-2	-1,914258115E-2	-2,871387079E-2	4,979141444E-2
1,107132509E0	-3,828516230E-2	-1,674975827E-2	-3,110669367E-2	5,209543594E-2
1,108328551E0	-4,546362907E-2	-1,914258115E-2	-3,349951655E-2	5,962883187E-2
1,109524541E0	-5,264209956E-2	-1,674975827E-2	-3,589234129E-2	6,587871592E-2
1,110720530E0	-5,982056633E-2	-1,435693540E-2	-3,828516230E-2	7,245947420E-2
1,111916572E0	-6,460621208E-2	-2,153540403E-2	-4,067798331E-2	7,932486743E-2
1,113112561E0	-7,178468257E-2	-2,871387079E-2	-4,067798331E-2	8,736260845E-2
1,114308603E0	-7,178468257E-2	-2,153540403E-2	-4,307080805E-2	8,644020352E-2
1,115504593E0	-7,657032460E-2	-1,435693540E-2	-4,546362907E-2	9,020020937E-2
1,116700582E0	-8,374879509E-2	-9,571290575E-3	-3,828516230E-2	9,258090481E-2
1,117896624E0	-7,657032460E-2	-1,674975827E-2	-4,307080805E-2	8,943524763E-2
1,119092614E0	-5,742774159E-2	-2,871387079E-2	-5,264209956E-2	8,302784187E-2
1,120288655E0	-4,546362907E-2	-3,110669367E-2	-5,024927482E-2	7,456244081E-2
1,121484645E0	-5,264209956E-2	-1,914258115E-2	-5,024927482E-2	7,525037328E-2
1,122680634E0	-5,503492057E-2	-9,571290575E-3	-5,264209956E-2	7,675703702E-2
1,123876676E0	-4,785645381E-2	-1,435693540E-2	-5,264209956E-2	7,257790580E-2
1,125072666E0	-5,264209956E-2	-2,632104978E-2	-4,546362907E-2	7,437022170E-2
1,126268707E0	-5,982056633E-2	-3,110669367E-2	-4,785645381E-2	8,268232409E-2
1,127464697E0	-5,982056633E-2	-3,349951655E-2	-4,785645381E-2	8,361194852E-2
1,128660686E0	-6,221338734E-2	-3,589234129E-2	-4,785645381E-2	8,630762364E-2
1,129856728E0	-5,982056633E-2	-3,589234129E-2	-4,785645381E-2	8,459905726E-2
1,131052718E0	-4,546362907E-2	-2,871387079E-2	-3,589234129E-2	6,465050740E-2
1,132248707E0	-3,110669367E-2	-2,632104978E-2	-3,110669367E-2	5,126451447E-2
1,133444749E0	-2,632104978E-2	-3,349951655E-2	-3,828516230E-2	5,727799685E-2
1,134640739E0	-2,632104978E-2	-3,589234129E-2	-4,307080805E-2	6,193668001E-2
1,135836780E0	-3,828516230E-2	-2,153540403E-2	-4,785645381E-2	6,495973714E-2
1,137032770E0	-5,503492057E-2	-2,153540403E-2	-4,785645381E-2	7,604509373E-2
1,138228811E0	-5,503492057E-2	-3,589234129E-2	-4,785645381E-2	8,128556339E-2
1,139424801E0	-4,785645381E-2	-3,589234129E-2	-5,264209956E-2	7,968494826E-2
1,140620791E0	-5,024927482E-2	-3,110669367E-2	-5,742774159E-2	8,240486342E-2
1,141816832E0	-5,503492057E-2	-2,632104978E-2	-5,024927482E-2	7,903562339E-2
1,143012822E0	-5,503492057E-2	-1,674975827E-2	-4,307080805E-2	7,186439585E-2
1,144208811E0	-4,546362907E-2	-1,674975827E-2	-3,828516230E-2	6,175151514E-2
1,145404853E0	-4,546362907E-2	-1,914258115E-2	-3,349951655E-2	5,962883187E-2
1,146600843E0	-4,546362907E-2	-1,914258115E-2	-4,067798331E-2	6,393808183E-2
1,147796884E0	-4,067798331E-2	-2,871387079E-2	-3,828516230E-2	6,280874425E-2
1,148992874E0	-4,785645381E-2	-3,349951655E-2	-3,828516230E-2	6,984419398E-2
1,150188916E0	-5,503492057E-2	-3,110669367E-2	-3,828516230E-2	7,390685033E-2
1,151384905E0	-5,982056633E-2	-2,632104978E-2	-3,349951655E-2	7,344055709E-2
1,152580895E0	-6,699903309E-2	-2,392822690E-2	-3,349951655E-2	7,863617544E-2
1,153776936E0	-6,460621208E-2	-2,632104978E-2	-2,871387079E-2	7,544035178E-2
1,154972926E0	-5,982056633E-2	-2,871387079E-2	-2,871387079E-2	7,230126491E-2
1,156168916E0	-5,503492057E-2	-3,110669367E-2	-3,349951655E-2	7,154499621E-2
1,157364957E0	-4,785645381E-2	-2,392822690E-2	-3,589234129E-2	6,442872323E-2
1,158560947E0	-4,546362907E-2	-2,392822690E-2	-3,349951655E-2	6,133285595E-2
1,159756989E0	-4,785645381E-2	-2,392822690E-2	-2,871387079E-2	6,072303179E-2
1,160952978E0	-4,307080805E-2	-9,571290575E-3	-2,153540403E-2	4,909661634E-2
1,162148968E0	-4,307080805E-2	-7,178467698E-3	-2,392822690E-2	4,979141440E-2
1,163345009E0	-9,284151793E-1	4,584648132E0	-1,507478207E-1	4,680136552E0
1,164540999E0	-1,584287834E1	2,593819809E1	2,799602449E-1	3,039515244E1
1,165737041E0	-4,196293259E1	5,160839844E1	1,412243938E1	6,799821906E1
1,166933030E0	-5,617390442E1	6,498427582E1	1,339023590E1	8,693539014E1
1,168129020E0	-4,734678268E1	6,717849731E1	-5,197210789E0	8,235095222E1
1,169325061E0	-2,866362190E1	5,570969772E1	-4,354937077E0	6,280238147E1
1,170521051E0	-1,591227055E1	3,582534027E1	-1,146162033E0	3,921694846E1
1,171717041E0	-8,197810173E0	1,853480339E1	-9,475577474E-1	2,028893526E1
1,172913082E0	-4,256831646E0	8,941978455E0	-9,332008660E-2	9,903953907E0
1,174109072E0	-2,335394859E0	4,232903481E0	-3,014956415E-1	4,843804357E0
1,175305114E0	-1,361516118E0	1,864008784E0	9,332008660E-2	2,310186903E0
1,176501103E0	-8,853443861E-1	7,082754970E-1	-1,986042857E-1	1,151057133E0
1,177697093E0	-6,436693072E-1	9,810572863E-2	2,632104978E-2	6,516346436E-1
1,178893134E0	-5,240281820E-1	-1,627119333E-1	-1,674975902E-1	5,737038883E-1
1,180089124E0	-4,594219327E-1	-3,421736360E-1	-6,939185411E-2	5,770325284E-1
1,181285114E0	-4,378865361E-1	-3,972085714E-1	-9,332008660E-2	5,985214335E-1
1,182481155E0	-4,283152521E-1	-4,331009090E-1	-3,828516230E-2	6,103245908E-1
1,183677145E0	-4,354937077E-1	-4,354937077E-1	-6,460621208E-2	6,192604472E-1
1,184873134E0	-4,402793646E-1	-4,402793646E-1	-3,828516230E-2	6,238249686E-1
1,186069176E0	-4,331009090E-1	-4,378865361E-1	-4,307080805E-2	6,173946148E-1
1,187265166E0	-4,307080805E-1	-4,450650215E-1	-1,674975827E-2	6,195747561E-1
1,188461207E0	-4,331009090E-1	-4,498506486E-1	-9,571290575E-3	6,245267112E-1
1,189657197E0	-4,331009090E-1	-4,474578202E-1	-1,435693540E-2	6,228972787E-1
1,190853186E0	-4,331009090E-1	-4,546363056E-1	-3,828516230E-2	6,290757676E-1
1,192049228E0	-4,307080805E-1	-4,642075896E-1	-8,135596663E-2	6,384488470E-1
1,193245218E0	-4,235295951E-1	-4,522434771E-1	-6,939185411E-2	6,234714989E-1
1,194441259E0	-4,307080805E-1	-4,474578202E-1	-6,221338734E-2	6,241782254E-1
1,195637249E0	-4,450650215E-1	-4,570291340E-1	-5,982056633E-2	6,407316153E-1
1,196833239E0	-4,474578202E-1	-4,570291340E-1	-4,307080805E-2	6,410532152E-1
1,198029280E0	-4,474578202E-1	-4,570291340E-1	-4,067798331E-2	6,408968938E-1
1,199225270E0	-4,642075896E-1	-4,522434771E-1	-3,349951655E-2	6,489492018E-1
1,200421259E0	-4,785645306E-1	-4,522434771E-1	-3,589234129E-2	6,594212862E-1
1,201617301E0	-4,761717021E-1	-4,498506486E-1	-4,307080805E-2	6,564755826E-1
1,202813291E0	-4,689932466E-1	-4,354937077E-1	-2,153540403E-2	6,403695873E-1
1,204009332E0	-4,737788737E-1	-4,283152521E-1	-7,178467698E-3	6,387267856E-1
1,205205322E0	-4,881358147E-1	-4,331009090E-1	-1,435693540E-2	6,527320220E-1
1,206401311E0	-4,905286431E-1	-4,187439680E-1	-2,153540403E-2	6,453128188E-1
1,207597353E0	-4,857429862E-1	-4,067798555E-1	-2,871387079E-2	6,342243971E-1
1,208793343E0	-4,881358147E-1	-4,139583111E-1	-3,349951655E-2	6,409058234E-1
1,209989332E0	-4,881358147E-1	-4,283152521E-1	-4,546362907E-2	6,509972890E-1
1,211185374E0	-4,857429862E-1	-4,307080805E-1	-5,024927482E-2	6,511379953E-1
1,212381364E0	-4,809573591E-1	-4,259224236E-1	-4,067798331E-2	6,437271087E-1
1,213577405E0	-4,881358147E-1	-4,187439680E-1	-3,589234129E-2	6,441361226E-1
1,214773395E0	-5,024927258E-1	-4,091726840E-1	-3,589234129E-2	6,490065369E-1
1,215969384E0	-5,072783828E-1	-4,019941986E-1	-4,307080805E-2	6,486800350E-1
1,217165426E0	-5,048855543E-1	-4,115654826E-1	-4,067798331E-2	6,526486557E-1
1,218361416E0	-5,024927258E-1	-4,235295951E-1	-2,871387079E-2	6,577999269E-1
1,219557457E0	-5,072783828E-1	-4,307080805E-1	-2,392822690E-2	6,658929105E-1
1,220753447E0	-5,192425251E-1	-4,283152521E-1	-2,632104978E-2	6,736167699E-1
1,221949436E0	-5,216353536E-1	-4,307080805E-1	-3,110669367E-2	6,771857346E-1
1,223145478E0	-5,168496966E-1	-4,331009090E-1	-3,828516230E-2	6,754078471E-1
1,224341468E0	-5,192425251E-1	-4,354937077E-1	-3,349951655E-2	6,785202922E-1
1,225537509E0	-5,216353536E-1	-4,354937077E-1	-3,349951655E-2	6,803531650E-1
1,226733499E0	-5,168496966E-1	-4,307080805E-1	-3,828516230E-2	6,738759628E-1
1,227929489E0	-5,168496966E-1	-4,259224236E-1	-3,828516230E-2	6,708273053E-1
1,229125530E0	-5,240281820E-1	-4,259224236E-1	-3,589234129E-2	6,762423431E-1
1,230321520E0	-5,240281820E-1	-4,259224236E-1	-4,067798331E-2	6,765132259E-1
1,231517561E0	-5,288137794E-1	-4,354937077E-1	-4,785645381E-2	6,867233961E-1
1,232713551E0	-4,666004181E-1	-2,775674164E-1	-1,148554832E-1	5,549336923E-1
1,233909541E0	-9,571290575E-3	8,949156404E-1	-1,205982566E0	1,501785458E0
1,235105582E0	1,136590719E0	3,917050600E0	-4,797609329E0	6,296997629E0
1,236301572E0	3,235096216E0	9,281759262E0	-9,260223389E0	1,350439335E1
1,237497561E0	6,618547440E0	1,718764496E1	-1,092084217E1	2,141226525E1
1,238693603E0	1,074138069E1	2,667757988E1	-9,346364975E0	3,023946206E1
1,239889593E0	1,454118347E1	3,593540955E1	-6,798008919E0	3,935749740E1
1,241085634E0	1,704407501E1	4,268317032E1	-5,522634506E0	4,629096038E1
1,242281624E0	1,761596107E1	4,479364014E1	-5,651846886E0	4,846375609E1
1,243477614E0	1,637169266E1	4,174518204E1	-5,816951752E0	4,521647345E1
1,244673655E0	1,388076401E1	3,500938797E1	-5,603990555E0	3,807541944E1
1,245869645E0	1,095434189E1	2,710828781E1	-5,008177757E0	2,966376103E1
1,247065686E0	8,193024635E0	1,985803604E1	-4,077369690E0	2,186531938E1
1,248261676E0	5,857629776E0	1,391187096E1	-3,110669374E0	1,541195134E1
1,249457666E0	3,981656790E0	9,317651749E0	-2,292324066E0	1,038879081E1
1,250653707E0	2,522035122E0	5,845665932E0	-1,612762451E0	6,567607941E0
1,251849697E0	1,442872047E0	3,254238844E0	-1,062413216E0	3,714925577E0
1,253045739E0	6,604190469E-1	1,371087432E0	-6,364908218E-1	1,649592262E0
1,254241728E0	1,507478207E-1	1,244267747E-1	-3,397808075E-1	3,919922510E-1
1,255437718E0	-1,268195957E-1	-5,838487148E-1	-1,770688742E-1	6,231499963E-1
1,256633759E0	-2,560320199E-1	-9,260223508E-1	-9,092725813E-2	9,650583172E-1
1,257829749E0	-3,158525825E-1	-1,100698471E0	-3,828516230E-2	1,145759893E0
1,259025739E0	-3,469592929E-1	-1,191625714E0	-1,435693540E-2	1,241192457E0
1,260221780E0	-3,732803464E-1	-1,222732425E0	-7,178467698E-3	1,278461705E0
1,261417770E0	-3,804588020E-1	-1,225125194E0	-4,785645287E-3	1,282849774E0
1,262613811E0	-3,804588020E-1	-1,229910851E0	-0,000000000E0	1,287411978E0
1,263809801E0	-3,876372576E-1	-1,232303619E0	9,571290575E-3	1,291869368E0
1,265005843E0	-3,972085714E-1	-1,225125194E0	4,785645287E-3	1,287916648E0
1,266201832E0	-3,948157430E-1	-1,217946768E0	2,392822644E-3	1,280343519E0
1,267397822E0	-3,972085714E-1	-1,205982566E0	2,392822644E-3	1,269714269E0
1,268593864E0	-3,972085714E-1	-1,201196909E0	-0,000000000E0	1,265167445E0
1,269789853E0	-3,948157430E-1	-1,208375454E0	-7,178467698E-3	1,271260099E0
1,270985843E0	-3,996013701E-1	-1,205982566E0	-7,178467698E-3	1,270482875E0
1,272181884E0	-4,019941986E-1	-1,208375454E0	2,392822644E-3	1,273489811E0
1,273377874E0	-4,043870270E-1	-1,201196909E0	1,196411345E-2	1,267495965E0
1,274573916E0	-3,996013701E-1	-1,189232826E0	1,674975827E-2	1,254685827E0
1,275769905E0	-3,972085714E-1	-1,191625714E0	1,196411345E-2	1,256140769E0
1,276965895E0	-4,019941986E-1	-1,201196909E0	-7,178467698E-3	1,266698417E0
1,278161936E0	-3,996013701E-1	-1,196411371E0	-1,196411345E-2	1,261437499E0
1,279357926E0	-3,876372576E-1	-1,189232826E0	-1,435693540E-2	1,250897070E0
1,280553968E0	-3,852444589E-1	-1,174875975E0	-2,153540403E-2	1,236612560E0
1,281749957E0	-3,852444589E-1	-1,160519004E0	-2,153540403E-2	1,222980550E0
1,282945947E0	-3,852444589E-1	-1,165304661E0	-1,674975827E-2	1,227448084E0
1,284141989E0	-3,852444589E-1	-1,165304661E0	-1,914258115E-2	1,227483069E0
1,285337978E0	-3,349951804E-1	-1,024128079E0	-5,982056633E-2	1,079184226E0
1,286534020E0	-1,555334777E-1	-4,761717021E-1	-2,727817893E-1	5,703858844E-1
1,287730009E0	2,368894368E-1	7,441678643E-1	-7,920243144E-1	1,112297141E0
1,288925999E0	8,781659007E-1	2,670390129E0	-1,684547186E0	3,277172259E0
1,290122041E0	1,725225091E0	5,142175674E0	-2,945564747E0	6,172092349E0
1,291318030E0	2,684746981E0	7,877171993E0	-4,481756687E0	9,452187470E0
1,292514020E0	3,625126362E0	1,050209904E1	-6,087340832E0	1,266851782E1
1,293710061E0	4,388436794E0	1,255514050E1	-7,537391186E0	1,528732142E1
1,294906051E0	4,804787636E0	1,361276817E1	-8,539983749E0	1,677273872E1
1,296102093E0	4,780859470E0	1,344527054E1	-8,815158844E0	1,677316138E1
1,297298082E0	4,345366001E0	1,210528946E1	-8,362915039E0	1,534140106E1
1,298494124E0	3,598805189E0	9,937392235E0	-7,341179848E0	1,286841423E1
1,299690114E0	2,684746981E0	7,369893551E0	-6,005984783E0	9,879020727E0
1,300886103E0	1,763510346E0	4,816751957E0	-4,639683247E0	6,916482400E0
1,302082145E0	9,571290612E-1	2,560320139E0	-3,388236761E0	4,353330174E0
1,303278134E0	3,014956415E-1	7,082754970E-1	-2,321038008E0	2,445357077E0
1,304474124E0	-2,081755698E-1	-7,202396393E-1	-1,452443361E0	1,634525596E0
1,305670166E0	-5,766702294E-1	-1,730010748E0	-7,848458290E-1	1,985313254E0
1,306866155E0	-7,944171429E-1	-2,337787628E0	-3,541377485E-1	2,494346234E0
1,308062197E0	-8,973084688E-1	-2,648854733E0	-1,387837082E-1	2,800152639E0
1,309258186E0	-9,379864931E-1	-2,801995277E0	-4,067798331E-2	2,955105902E0
1,310454176E0	-9,571290612E-1	-2,878565550E0	-2,392822644E-3	3,033519637E0
1,311650218E0	-9,690931439E-1	-2,909672260E0	1,674975827E-2	3,066857470E0
1,312846207E0	-9,714859724E-1	-2,916850805E0	4,307080805E-2	3,074680261E0
1,314042249E0	-9,667003751E-1	-2,914458036E0	5,264209956E-2	3,071049731E0
1,315238239E0	-9,547362328E-1	-2,919243574E0	4,546362907E-2	3,071737499E0
1,316434228E0	-9,403793216E-1	-2,916850805E0	5,264209956E-2	3,065143240E0
1,317630270E0	-9,308080077E-1	-2,907279491E0	6,939185411E-2	3,053439506E0
1,318826259E0	-9,140582681E-1	-2,904886723E0	7,657032460E-2	3,046265321E0
1,320022301E0	-8,997012973E-1	-2,900100946E0	7,896314561E-2	3,037479729E0
1,321218291E0	-8,925228715E-1	-2,892922640E0	7,178468257E-2	3,028324870E0
1,322414280E0	-8,805587292E-1	-2,880958557E0	6,699903309E-2	3,013269778E0
1,323610322E0	-8,638089895E-1	-2,868994236E0	5,742774159E-2	2,996763561E0
1,324807093E0	-8,494520187E-1	-2,859423161E0	5,503492057E-2	2,983437344E0
1,326002353E0	-8,422735929E-1	-2,861815929E0	5,982056633E-2	2,983788484E0
1,327198343E0	-8,374879360E-1	-2,868994236E0	6,460621208E-2	2,989429366E0
1,328394332E0	-8,279166222E-1	-2,852244616E0	6,939185411E-2	2,970784494E0
1,329590374E0	-8,183453679E-1	-2,830709219E0	6,939185411E-2	2,947442799E0
1,330786364E0	-8,087740541E-1	-2,830709219E0	6,699903309E-2	2,944744305E0
1,331982353E0	-8,087740541E-1	-2,835494757E0	6,699903309E-2	2,949344818E0
1,333178395E0	-8,015955687E-1	-2,825923443E0	6,939185411E-2	2,938233141E0
1,334374384E0	-7,920243144E-1	-2,813959360E0	6,699903309E-2	2,924065435E0
1,335570426E0	-7,800601721E-1	-2,799602509E0	6,460621208E-2	2,906964403E0
1,336766416E0	-7,680960894E-1	-2,785245657E0	7,657032460E-2	2,890229746E0
1,337962405E0	-7,561319470E-1	-2,775674343E0	8,374879509E-2	2,878040556E0
1,339158447E0	-7,298108935E-1	-2,713460922E0	5,024927482E-2	2,810341457E0
1,340354436E0	-6,723831892E-1	-2,402393818E0	-2,560320199E-1	2,507817299E0
1,341550478E0	-5,455635786E-1	-1,674975872E0	-1,205982566E0	2,134848411E0
1,342746468E0	-3,493520916E-1	-5,742774606E-1	-2,912065268E0	2,988639424E0
1,343942457E0	-1,411765367E-1	7,010970116E-1	-5,075176716E0	5,125318188E0
1,345138499E0	3,110669367E-2	1,823330879E0	-7,209574699E0	7,436630317E0
1,346334489E0	1,124626622E-1	2,471785784E0	-8,764909744E0	9,107470320E0
1,347530530E0	5,503492057E-2	2,433500528E0	-9,339186668E0	9,651184450E0
1,348726520E0	-1,435693651E-1	1,706082582E0	-8,865407944E0	9,029218568E0
1,349922509E0	-4,307080805E-1	4,785645306E-1	-7,556533813E0	7,583913023E0
1,351118551E0	-7,609176040E-1	-9,284151793E-1	-5,816951752E0	5,939518333E0
1,352314541E0	-1,055234790E0	-2,230110645E0	-4,065405846E0	4,755464083E0
1,353510582E0	-1,280160069E0	-3,302095175E0	-2,572284460E0	4,377132588E0
1,354706572E0	-1,435693622E0	-4,089334011E0	-1,430907965E0	4,564139178E0
1,355902561E0	-1,519442320E0	-4,572684288E0	-6,604190469E-1	4,863568636E0
1,357098603E0	-1,560120344E0	-4,823930264E0	-2,344966233E-1	5,075358839E0
1,358294593E0	-1,574477315E0	-4,943571568E0	-2,392822690E-2	5,188299453E0
1,359490582E0	-1,572084427E0	-4,991427898E0	7,896314561E-2	5,233740258E0
1,360686624E0	-1,555334687E0	-5,010570526E0	1,316052526E-1	5,248066590E0
1,361882614E0	-1,526620865E0	-5,010570526E0	1,746760458E-1	5,240887328E0
1,363078655E0	-1,502692580E0	-5,003392220E0	1,914258152E-1	5,227682329E0
1,364274645E0	-1,483550072E0	-4,996213913E0	1,938186288E-1	5,215423275E0
1,365470634E0	-1,471585870E0	-4,986642361E0	2,009970993E-1	5,203130485E0
1,366666676E0	-1,452443361E0	-4,981856823E0	2,105683982E-1	5,193537154E0
1,367862666E0	-1,428515077E0	-4,977071285E0	2,225325108E-1	5,182799882E0
1,369058707E0	-1,409372568E0	-4,955535889E0	2,368894368E-1	5,157497803E0
1,370254697E0	-1,390229940E0	-4,924428940E0	2,560320199E-1	5,123308703E0
1,371450686E0	-1,368694544E0	-4,898108006E0	2,919243574E-1	5,094114900E0
1,372646728E0	-1,361516118E0	-4,883750916E0	3,206382394E-1	5,080113978E0
1,373842718E0	-9,619147182E-1	-4,893322468E0	1,244267747E-1	4,988523501E0
1,375038707E0	1,252403355E1	-1,436890030E1	-9,820143700E0	2,144182675E1
1,376234749E0	3,856751633E1	-3,739742661E1	1,328016520E0	5,373810994E1
1,377430739E0	3,235574722E1	-5,558048248E1	7,642675400E0	6,476492028E1
1,378626780E0	2,660818815E0	-4,520759964E1	-3,582055569E0	4,542728414E1
1,379822770E0	-1,353141212E1	-2,125544357E1	3,850051641E0	2,548952517E1
1,381018811E0	-2,225085831E1	-9,442078590E0	-1,320838094E0	2,420739880E1
1,382214801E0	-2,597169685E1	-4,168296814E0	-1,304088354E0	2,633636995E1
1,383410791E0	-2,793859673E1	-9,475577474E-1	2,060220242E0	2,803047556E1
1,384606832E0	-2,919004250E1	2,656033039E-1	3,613162339E-1	2,919348687E1
1,385802822E0	-2,956332397E1	9,236295223E-1	2,050648928E0	2,964875001E1
1,386998864E0	-2,989353371E1	1,138983607E0	1,050449133E0	2,993366139E1
1,388194853E0	-2,710589409E1	1,679761529E0	2,167897224E0	2,724428145E1
1,389390843E0	-1,679043579E1	-1,071984577E1	1,563709641E1	2,532494050E1
1,390586884E0	-1,268195957E-1	-3,226960754E1	3,939303970E1	5,092303242E1
1,391782874E0	8,432307243E0	-3,189632607E1	5,413043213E1	6,339229531E1
1,392978864E0	7,403393269E0	-1,292842102E1	5,335755157E1	5,539839900E1
1,394174905E0	3,120240688E0	-5,934200287E0	3,147279549E1	3,217899145E1
1,395370895E0	3,469592929E-1	-3,859622955E0	1,335195065E1	1,390293696E1
1,396566884E0	-1,495514154E0	-6,723831654E0	7,975277901E0	1,053809908E1
1,397762926E0	4,094119549E0	-2,139901352E1	2,191586304E1	3,090282588E1
1,398958916E0	8,224131584E0	-2,260978127E1	4,195575333E1	4,836448890E1
1,400154957E0	-1,165304661E0	-1,103569794E1	1,826202202E1	2,136927730E1
1,401350947E0	-5,575276852E0	-3,950550079E0	2,299502611E0	7,209595700E0
1,402546936E0	-5,630311489E0	-1,402194023E0	4,522434711E0	7,356559744E0
1,403742978E0	-6,120840549E0	3,086741269E-1	-6,771687865E-1	6,165916502E0
1,404938968E0	-6,058627129E0	9,188438654E-1	6,795616150E-1	6,165471654E0
1,406134957E0	-6,139982700E0	1,406979680E0	-3,756731451E-1	6,310317717E0
1,407330999E0	-6,056233883E0	1,514656782E0	1,292124242E-1	6,244105209E0
1,408526989E0	-6,080162525E0	1,670190215E0	-2,392822644E-3	6,305387967E0
1,409722978E0	-6,077769279E0	1,732403636E0	1,603191197E-1	6,321882947E0
1,410919020E0	-6,082555294E0	1,758724689E0	3,014956415E-1	6,338887210E0
1,412115009E0	-6,063412666E0	1,785045743E0	3,637090325E-1	6,331164642E0
1,413311051E0	-6,075376511E0	1,797009826E0	4,067798555E-1	6,348615118E0
1,414507041E0	-6,075376511E0	1,825723648E0	2,823530734E-1	6,350054318E0
1,415703030E0	-6,077769279E0	1,830509305E0	2,153540403E-1	6,351096054E0
1,416899072E0	-6,065805435E0	1,856830359E0	1,196411327E-1	6,344771750E0
1,418095061E0	-5,977271080E0	2,002792597E0	-4,211367965E-1	6,317935102E0
1,419291103E0	-5,922235966E0	2,098505497E0	-5,268995285E0	8,199933870E0
1,420487093E0	-5,824130535E0	2,053041935E0	-1,622812271E1	1,736339380E1
1,421683082E0	-5,201996326E0	2,368894339E0	-2,796970367E1	2,854779763E1
1,422879124E0	-3,933800459E0	3,074777126E0	-3,249692535E1	3,287824810E1
1,424075114E0	-2,584248543E0	3,548556089E0	-2,695993233E1	2,731498750E1
1,425271103E0	-1,749153376E0	3,105883837E0	-1,658704567E1	1,696573417E1
1,426467145E0	-1,471585870E0	2,311466694E0	-8,599804878E0	9,025801194E0
1,427663134E0	-1,347159147E0	1,325623751E0	-9,236295700E0	9,427686586E0
1,428859124E0	2,115255117E0	4,067798555E-1	-1,515613842E1	1,530843904E1
1,430055166E0	5,989234924E0	1,351944804E0	-4,187439442E0	7,431913536E0
1,431251155E0	3,072384357E0	6,652047038E-1	-6,410371780E0	7,139671512E0
1,432447197E0	4,378865361E-1	-5,551348329E-1	-9,171689034E0	9,198902056E0
1,433643186E0	7,417750359E-2	-3,924229145E-1	-1,588834286E0	1,638258964E0
1,434839176E0	-6,987041831E-1	-6,197410822E-1	-2,890529871E0	3,037668428E0
1,436035218E0	-6,580262184E-1	-5,120640397E-1	-3,684946895E-1	9,115900510E-1
1,437231207E0	-8,614161611E-1	-5,647061467E-1	-8,662018180E-1	1,345821840E0
1,438427249E0	-8,183453679E-1	-5,383850932E-1	-5,742774159E-2	9,812469594E-1
1,439623239E0	-8,805587292E-1	-5,431707501E-1	-1,052841991E-1	1,039953317E0
1,440819228E0	-8,685946465E-1	-5,288137794E-1	1,579262912E-1	1,029097365E0
1,442015270E0	-8,853443861E-1	-5,359922647E-1	1,316052526E-1	1,043284397E0
1,443211259E0	-8,757730722E-1	-5,383850932E-1	1,100698411E-1	1,033901520E0
1,444407301E0	-8,829515576E-1	-5,383850932E-1	2,871387079E-2	1,034546494E0
1,445603291E0	-8,781659007E-1	-5,335994363E-1	-1,435693540E-2	1,027672044E0
1,446799280E0	-8,685946465E-1	-5,407779217E-1	-2,632104978E-2	1,023518548E0
1,447995322E0	-8,662018180E-1	-5,479564071E-1	-2,392822644E-3	1,024971970E0
1,449191311E0	-8,638089895E-1	-5,551348329E-1	3,110669367E-2	1,027281986E0
1,450387301E0	-8,662018180E-1	-5,503492355E-1	5,024927482E-2	1,027479859E0
1,451583343E0	-8,757730722E-1	-5,335994363E-1	5,503492057E-2	1,027003250E0
1,452779332E0	-8,805587292E-1	-5,216353536E-1	5,503492057E-2	1,024946808E0
1,453975374E0	-8,805587292E-1	-5,264210105E-1	6,221338734E-2	1,027800205E0
1,455171364E0	-8,829515576E-1	-5,288137794E-1	6,221338734E-2	1,031076123E0
1,456367353E0	-8,805587292E-1	-5,264210105E-1	5,503492057E-2	1,027390675E0
1,457563395E0	-8,757730722E-1	-5,240281820E-1	5,024927482E-2	1,021816519E0
1,458759384E0	-8,829515576E-1	-5,144568682E-1	5,503492057E-2	1,023375867E0
1,459955426E0	-8,877372146E-1	-5,144568682E-1	5,982056633E-2	1,027775137E0
1,461151416E0	-8,853443861E-1	-5,264210105E-1	6,460621208E-2	1,032050253E0
1,462347405E0	-8,829515576E-1	-5,335994363E-1	6,939185411E-2	1,033995668E0
1,463543447E0	-8,781659007E-1	-5,335994363E-1	7,417750359E-2	1,030245606E0
1,464739436E0	-8,853443861E-1	-5,216353536E-1	7,896314561E-2	1,030617923E0
1,465935426E0	-9,547362328E-1	-7,106683254E-1	-1,004985496E-1	1,194433213E0
1,467131468E0	-1,483550072E0	-2,737389088E0	3,940979004E0	5,022502896E0
1,468327457E0	-1,907079697E0	-5,941378593E0	1,241635704E1	1,389614532E1
1,469523499E0	-1,596012712E0	-7,209574699E0	1,639801407E1	1,798388416E1
1,470719489E0	-1,182054400E0	-6,570691109E0	1,513699627E1	1,654387773E1
1,471915478E0	-8,925228715E-1	-5,560919762E0	1,312463188E1	1,428203024E1
1,473111520E0	-6,771687865E-1	-4,776073933E0	1,202393341E1	1,295547816E1
1,474307509E0	-6,029912829E-1	-3,742374659E0	1,021496010E1	1,089561271E1
1,475503551E0	-5,575276613E-1	-2,854637384E0	8,319844246E0	8,813603121E0
1,476699541E0	-4,474578202E-1	-2,995813847E0	9,798608780E0	1,025611296E1
1,477895530E0	-3,445664644E-1	-3,244667530E0	1,197129154E1	1,240799801E1
1,479091572E0	-3,062812984E-1	-2,469393015E0	1,089930725E1	1,117974099E1
1,480287561E0	-4,043870270E-1	-1,292124271E0	7,444071293E0	7,566195306E0
1,481483551E0	-5,694918036E-1	-5,359922647E-1	4,436293125E0	4,504698138E0
1,482679593E0	-6,699903607E-1	-1,842473447E-1	2,871387243E0	2,954267907E0
1,483875582E0	-6,795616150E-1	-1,220339537E-1	2,608176708E0	2,698014458E0
1,485071624E0	-4,307080805E-1	-1,363908947E-1	4,651647091E0	4,673535341E0
1,486267614E0	2,679961324E-1	-7,992027402E-1	1,543370628E1	1,545670847E1
1,487463603E0	8,901300430E-1	-1,820937991E0	2,963032341E1	2,969956586E1
1,488659645E0	1,107876897E0	-1,935793519E0	3,483710480E1	3,490843105E1
1,489855634E0	1,036092162E0	-1,464407444E0	3,116890717E1	3,122048606E1
1,491051676E0	7,609176040E-1	-1,127019525E0	2,440679169E1	2,444464459E1
1,492247666E0	5,192425251E-1	-8,494520187E-1	1,796531296E1	1,799287779E1
1,493443655E0	3,589234054E-1	-6,029912829E-1	1,252403355E1	1,254367732E1
1,494639697E0	2,632105052E-1	-4,905286431E-1	9,719645500E0	9,735574291E0
1,495835686E0	2,249253243E-1	-4,929214716E-1	9,731609344E0	9,746680636E0
1,497031676E0	2,225325108E-1	-6,101697683E-1	1,169851017E1	1,171652543E1
1,498227718E0	1,914258152E-1	-7,250252366E-1	1,287099266E1	1,289281806E1
1,499423707E0	1,435693651E-1	-6,723831892E-1	1,079402256E1	1,081589730E1
1,500619749E0	1,028913707E-1	-5,694918036E-1	6,843472958E0	6,867898490E0
1,501815739E0	6,939185411E-2	-5,407779217E-1	3,605983734E0	3,646967875E0
1,503011728E0	4,067798331E-2	-5,455635786E-1	1,878365755E0	1,956413102E0
1,504207770E0	3,110669367E-2	-5,455635786E-1	1,086341500E0	1,216036636E0
1,505403759E0	2,871387079E-2	-5,575276613E-1	7,728816867E-1	9,534189431E-1
1,506599801E0	3,110669367E-2	-5,551348329E-1	6,628118753E-1	8,651369205E-1
1,507795791E0	-7,489534616E-1	1,399801254E0	-1,088734269E0	1,925023934E0
1,508991780E0	2,440679073E-1	1,547438431E1	9,396614075E0	1,810559292E1
1,510187822E0	1,308874011E0	3,064009476E1	3,243231964E1	4,463612791E1
1,511383811E0	3,684946895E-1	2,473460770E1	3,632065582E1	4,394458608E1
1,512579853E0	9,595218897E-1	9,518648148E0	4,035974121E1	4,147811538E1
1,513775843E0	9,451649189E-1	2,928814888E0	4,009892273E1	4,021684843E1
1,514971832E0	-1,531406492E-1	1,127019525E0	2,222932243E1	2,225840068E1
1,516167874E0	-3,134597540E-1	-7,872386575E-1	1,270110226E1	1,272933621E1
1,517363864E0	-9,571290575E-3	-1,988435626E0	9,233902931E0	9,445577335E0
1,518559853E0	5,144568682E-1	-2,725425005E0	9,683753014E0	1,007311669E1
1,519755895E0	9,762716293E-1	-3,024527788E0	1,131326580E1	1,175120665E1
1,520951884E0	1,208375454E0	-3,687339783E0	1,366062450E1	1,420103193E1
1,522147926E0	1,318445325E0	-3,998406649E0	1,435454273E1	1,495922628E1
1,523343916E0	1,418943882E0	-3,340380430E0	1,014556789E1	1,077516084E1
1,524539905E0	1,954936147E0	-1,332802176E0	1,347159147E0	2,722677863E0
1,525735947E0	3,371487141E0	1,071984529E0	-1,196411327E-1	3,539829144E0
1,526931936E0	3,806980848E0	1,885544300E0	8,161917686E0	9,201373854E0
1,528127978E0	2,179861546E0	1,349551916E0	8,240880966E0	8,630481205E0
1,529323968E0	8,279166222E-1	7,417750359E-1	4,692325115E0	4,822197748E0
1,530519957E0	3,804588020E-1	5,264209956E-2	4,218546391E0	4,235995012E0
1,531715999E0	2,656033039E-1	-7,968099117E-1	4,342973232E0	4,423445224E0
1,532911989E0	2,967100143E-1	-1,387837172E0	5,213960648E0	5,403657510E0
1,534107978E0	2,249253243E-1	-1,289731383E0	4,309473515E0	4,503949424E0
1,535304020E0	1,148554832E-1	-8,614161611E-1	2,749353170E0	2,883430672E0
1,536500009E0	0,000000000E0	-5,503492355E-1	1,414158225E0	1,517474140E0
1,537696051E0	-4,546362907E-2	-3,828516304E-1	7,322037220E-1	8,275050471E-1
1,538892041E0	-5,982056633E-2	-2,943171859E-1	3,661018610E-1	4,735310747E-1
1,540088030E0	-7,178468257E-2	-2,464607358E-1	1,938186288E-1	3,216544665E-1
1,541284072E0	-8,135596663E-2	-2,344966233E-1	1,220339537E-1	2,765858736E-1
1,542480061E0	-8,374879509E-2	-2,153540403E-1	1,004985496E-1	2,519745658E-1
1,543676103E0	-9,092725813E-2	-2,009970993E-1	9,810572863E-2	2,414380545E-1
1,544872093E0	-9,810572863E-2	-1,914258152E-1	1,076770201E-1	2,405471209E-1
1,546068082E0	-1,028913707E-1	-1,938186288E-1	1,148554832E-1	2,476773648E-1
1,547264124E0	-9,810572863E-2	-1,962114573E-1	1,124626622E-1	2,465188032E-1
1,548460114E0	-9,810572863E-2	-1,986042857E-1	1,172483116E-1	2,506303311E-1
1,549656103E0	-1,052841991E-1	-2,009970993E-1	1,196411327E-1	2,565123723E-1
1,550852145E0	-1,148554832E-1	-1,962114573E-1	1,100698411E-1	2,525986696E-1
1,552048134E0	-1,124626622E-1	-2,009970993E-1	1,004985496E-1	2,512919473E-1
1,553244176E0	-1,124626622E-1	-2,057827413E-1	9,810572863E-2	2,542029130E-1
1,554440166E0	-1,196411327E-1	-2,033899277E-1	1,124626622E-1	2,613987638E-1
1,555636155E0	-1,220339537E-1	-1,986042857E-1	1,196411327E-1	2,620113524E-1
1,556832197E0	-1,172483116E-1	-1,794617027E-1	1,244267747E-1	2,478622431E-1
1,558028186E0	-1,028913707E-1	-9,092725813E-2	2,225325108E-1	2,614863644E-1
1,559224228E0	-8,853443712E-2	1,004985496E-1	5,024927258E-1	5,200358109E-1
1,560420218E0	-5,982056633E-2	4,043870270E-1	1,146162033E0	1,216879112E0
1,561616207E0	4,307080805E-2	7,920243144E-1	2,342573404E0	2,473218099E0
1,562812249E0	2,656033039E-1	1,143769264E0	4,201796532E0	4,362779772E0
1,564008239E0	6,077769399E-1	1,232303619E0	6,125626087E0	6,277838798E0
1,565204280E0	8,805587292E-1	1,014556766E0	6,630511761E0	6,765234313E0
1,566400270E0	9,451649189E-1	7,034898400E-1	5,843272686E0	5,960878321E0
1,567596259E0	8,303094506E-1	4,905286431E-1	4,783252239E0	4,879501421E0
1,568792301E0	6,125625968E-1	3,996013701E-1	3,835694790E0	3,904800726E0
1,569988291E0	3,804588020E-1	3,637090325E-1	3,215953588E0	3,258740653E0
1,571184280E0	1,842473447E-1	3,996013701E-1	3,026920557E0	3,058737713E0
1,572380322E0	4,067798331E-2	4,977070987E-1	3,474378586E0	3,510081710E0
1,573576311E0	-4,307080805E-2	6,580262184E-1	4,445864677E0	4,494504014E0
1,574772353E0	2,321037948E-1	1,249053478E0	9,269794464E0	9,356446771E0
1,575968343E0	1,404586911E0	3,383451223E0	2,752942467E1	2,777210523E1
1,577164332E0	1,160519004E0	6,491727829E0	5,074698257E1	5,117368049E1
1,578360374E0	-6,699903607E-1	8,506484032E0	6,193821335E1	6,252320714E1
1,579556364E0	-1,330409408E0	7,429714203E0	5,467599869E1	5,519452396E1
1,580752353E0	-1,124626637E0	4,007977962E0	3,615555191E1	3,639440350E1
1,581948395E0	-3,278166950E-1	1,651047587E0	2,966860771E1	2,971632052E1
1,583144384E0	2,909672260E0	2,797209740E0	4,347040939E1	4,365738274E1
1,584340426E0	2,837887764E0	3,605983734E0	3,582773209E1	3,612039745E1
1,585536416E0	-1,435693651E-1	3,235096216E0	7,156932354E0	7,855452909E0
1,586732405E0	-6,604190469E-1	3,036491871E0	-6,436693072E-1	3,173443930E0
1,587928447E0	-1,007378340E0	2,158325911E0	-2,213361025E0	3,251484105E0
1,589124436E0	-8,231309652E-1	1,643869162E0	-3,237488985E0	3,723061285E0
1,590320478E0	-4,067798555E-1	1,215553880E0	-2,196611166E0	2,543254156E0
1,591516468E0	-7,178468257E-2	1,050449133E0	-2,703889608E0	2,901657360E0
1,592712457E0	1,818545163E-1	9,236295223E-1	-2,033899307E0	2,241184721E0
1,593908499E0	2,775674164E-1	8,638089895E-1	-1,526620865E0	1,775888765E0
1,595104489E0	2,488535494E-1	7,393822074E-1	1,674975827E-2	7,803170458E-1
1,596300530E0	4,785645287E-3	6,388836503E-1	1,392622828E0	1,532185878E0
1,597496520E0	-2,416750938E-1	4,953143001E-1	2,653640270E0	2,710267476E0
1,598692509E0	-3,134597540E-1	2,560320199E-1	3,270988464E0	3,295933092E0
1,599888551E0	-1,531406492E-1	-3,589234129E-2	3,455235958E0	3,458814225E0
1,601084541E0	8,135596663E-2	-3,134597540E-1	3,297309637E0	3,313174709E0
1,602280530E0	2,823530734E-1	-5,144568682E-1	3,017349243E0	3,073887698E0
1,603476572E0	4,019941986E-1	-6,364908218E-1	2,723032236E0	2,825176890E0
1,604672561E0	4,737788737E-1	-6,843472719E-1	2,488535643E0	2,624044065E0
1,605868603E0	5,192425251E-1	-7,106683254E-1	2,340180635E0	2,500221525E0
1,607064593E0	5,527420044E-1	-7,154539824E-1	2,270788670E0	2,444152063E0
1,608260582E0	5,862415433E-1	-7,082754970E-1	2,282752752E0	2,460953769E0
1,609456624E0	6,340979934E-1	-6,939185858E-1	2,368894339E0	2,548580714E0
1,610652614E0	6,963114142E-1	-6,819544435E-1	2,536391973E0	2,717203653E0
1,611848603E0	8,087740541E-1	-6,699903607E-1	2,857030153E0	3,043948727E0
1,613044645E0	1,071984529E0	-6,317051649E-1	3,390629768E0	3,611727076E0
1,614240634E0	1,641476393E0	-4,402793646E-1	4,271188259E0	4,596883707E0
1,615436676E0	2,469393015E0	-1,435693540E-2	6,147161484E0	6,624628464E0
1,616632666E0	3,235096216E0	6,197410822E-1	1,019820976E1	1,071696827E1
1,617828655E0	3,716053486E0	1,493121386E0	1,728814316E1	1,774593922E1
1,619024697E0	3,543770313E0	2,617748022E0	2,810848808E1	2,845167860E1
1,620220686E0	1,823330879E0	3,287738323E0	3,703850174E1	3,722881102E1
1,621416728E0	-8,590233326E-1	2,801995277E0	3,659582901E1	3,671299224E1
1,622612718E0	-2,488535643E0	1,777867198E0	2,863012314E1	2,879301256E1
1,623808707E0	-2,627319336E0	9,284151793E-1	1,952782631E1	1,972563718E1
1,625004749E0	-2,199003935E0	3,373879790E-1	1,269870949E1	1,289211665E1
1,626200739E0	-1,811366796E0	-2,392822644E-3	8,427521706E0	8,619987094E0
1,627396728E0	-1,598405480E0	-1,124626622E-1	6,187839508E0	6,391940684E0
1,628592770E0	-1,495514154E0	-1,674975827E-2	5,180460930E0	5,392032881E0
1,629788759E0	-1,404586911E0	2,225325108E-1	4,912465096E0	5,114166445E0
1,630984801E0	-1,258624673E0	5,120640397E-1	5,091926575E0	5,270110235E0
1,632180791E0	-1,012163997E0	7,298108935E-1	5,623133183E0	5,759924191E0
1,633376780E0	-7,250252366E-1	8,087740541E-1	6,513263226E0	6,603209440E0
1,634572822E0	-4,402793646E-1	7,633104324E-1	7,776673794E0	7,826438783E0
1,635768811E0	-1,698904037E-1	6,101697683E-1	9,360722542E0	9,382126433E0
1,636964853E0	6,699903309E-2	3,613162339E-1	1,108833981E1	1,109442734E1
1,638160843E0	3,134597540E-1	6,221338734E-2	1,256471157E1	1,256877498E1
1,639356832E0	5,694918036E-1	-2,105683982E-1	1,335673618E1	1,337052959E1
1,640552874E0	7,585247755E-1	-3,756731451E-1	1,325862980E1	1,328562209E1
1,641748864E0	8,159525394E-1	-4,163511395E-1	1,237089348E1	1,240476248E1
1,642944853E0	7,106683254E-1	-3,661018610E-1	1,103569794E1	1,106461518E1
1,644140895E0	5,144568682E-1	-2,512463629E-1	9,729216576E0	9,746047700E0
1,645336884E0	3,326023519E-1	-8,374879509E-2	8,800801277E0	8,807482121E0
1,646532926E0	2,201396823E-1	8,374879509E-2	8,346165657E0	8,349488398E0
1,647728916E0	1,674975902E-1	1,938186288E-1	8,298309326E0	8,302262269E0
1,648924905E0	1,268195957E-1	2,177468538E-1	8,516056061E0	8,519783315E0
1,650120947E0	7,657032460E-2	1,579262912E-1	8,867800713E0	8,869537373E0
1,651316936E0	1,674975827E-2	7,896314561E-2	9,250652313E0	9,251004483E0
1,652512926E0	-3,110669367E-2	3,110669367E-2	9,643074989E0	9,643175333E0
1,653708968E0	-1,004985496E-1	2,871387079E-2	1,004267693E1	1,004322081E1
1,654904957E0	-1,962114573E-1	9,092725813E-2	1,037527943E1	1,037753294E1
1,656100999E0	-2,632105052E-1	2,033899277E-1	1,059302616E1	1,059824752E1
1,657296989E0	-2,536391914E-1	3,038884699E-1	1,066481018E1	1,067215335E1
1,658492978E0	-1,435693651E-1	3,326023519E-1	1,058345413E1	1,058965240E1
1,659689020E0	1,674975827E-2	2,943171859E-1	1,038245773E1	1,038664199E1
1,660885009E0	1,555334777E-1	2,416750938E-1	1,010728264E1	1,011136785E1
1,662081051E0	2,584248483E-1	2,081755698E-1	9,801001549E0	9,806617757E0
1,663277041E0	3,445664644E-1	1,842473447E-1	9,513862610E0	9,521882949E0
1,664473030E0	4,115654826E-1	1,435693651E-1	9,303294182E0	9,313499930E0
1,665669072E0	4,331009090E-1	9,571290761E-2	9,226723671E0	9,237378798E0
1,666865061E0	3,996013701E-1	7,178468257E-2	9,281759262E0	9,290634494E0
1,668061051E0	3,062812984E-1	7,417750359E-2	9,415757179E0	9,421029338E0
1,669257093E0	1,890329868E-1	7,657032460E-2	9,535398483E0	9,537579395E0
1,670453082E0	9,810572863E-2	6,460621208E-2	9,611968994E0	9,612686755E0
1,671649124E0	5,264209956E-2	6,699903309E-2	9,674181938E0	9,674557160E0
1,672845114E0	4,546362907E-2	9,810572863E-2	9,736394882E0	9,736995275E0
1,674041103E0	3,110669367E-2	1,531406492E-1	9,801001549E0	9,802247245E0
1,675237145E0	2,392822644E-3	2,105683982E-1	9,832108498E0	9,834363339E0
1,676433134E0	-7,178467698E-3	2,512463629E-1	9,803394318E0	9,806615951E0
1,677629176E0	3,349951655E-2	2,656033039E-1	9,762716293E0	9,766386064E0
1,678825166E0	9,571290761E-2	2,560320199E-1	9,765109062E0	9,768933839E0
1,680021155E0	1,411765367E-1	2,368894368E-1	9,820143700E0	9,824014948E0
1,681217197E0	1,507478207E-1	2,129612118E-1	9,875179291E0	9,878625583E0
1,682413186E0	1,363908947E-1	1,866401732E-1	9,872786522E0	9,875492430E0
1,683609176E0	1,268195957E-1	1,531406492E-1	9,836894035E0	9,838903370E0
1,684805218E0	1,268195957E-1	1,196411327E-1	9,791430473E0	9,792982586E0
1,686001207E0	1,172483116E-1	9,092725813E-2	9,772287369E0	9,773413700E0
1,687197249E0	6,939185411E-2	8,614161611E-2	9,791430473E0	9,792055265E0
1,688393239E0	1,914258115E-2	1,196411327E-1	9,822537422E0	9,823284677E0
1,689589228E0	-2,392822644E-3	1,698904037E-1	9,841679573E0	9,843146108E0
1,690785270E0	2,392822644E-3	1,890329868E-1	9,863214493E0	9,865026068E0
1,691981259E0	1,914258115E-2	1,579262912E-1	9,908679008E0	9,909955946E0
1,693177249E0	9,571290575E-3	1,339980662E-1	9,961320877E0	9,962226694E0
1,694373291E0	-2,153540403E-2	1,579262912E-1	9,999606133E0	1,000087633E1
1,695569280E0	-2,871387079E-2	1,866401732E-1	1,001635551E1	1,001813540E1
1,696765322E0	4,785645287E-3	1,698904037E-1	1,000439167E1	1,000583521E1
1,697961311E0	4,067798331E-2	1,196411327E-1	9,990034103E0	9,990833303E0
1,699157301E0	2,871387079E-2	8,135596663E-2	9,990034103E0	9,990406632E0
1,700353343E0	-7,178467698E-3	8,614161611E-2	9,990034103E0	9,990408065E0
1,701549332E0	-2,153540403E-2	1,052841991E-1	9,963713646E0	9,964293159E0
1,702745374E0	-1,196411345E-2	1,004985496E-1	9,915857315E0	9,916373803E0
1,703941364E0	1,196411345E-2	6,939185411E-2	9,870393753E0	9,870644924E0
1,705137353E0	2,153540403E-2	3,349951655E-2	9,858428955E0	9,858509393E0
1,706333395E0	9,571290575E-3	3,828516230E-2	9,882357597E0	9,882436392E0
1,707529384E0	2,392822644E-3	6,939185411E-2	9,894321442E0	9,894565061E0
1,708725374E0	2,153540403E-2	1,076770201E-1	9,875179291E0	9,875789798E0
1,709921416E0	4,785645381E-2	1,268195957E-1	9,848857880E0	9,849790606E0
1,711117405E0	6,460621208E-2	1,196411327E-1	9,836894035E0	9,837833716E0
1,712313447E0	6,939185411E-2	1,172483116E-1	9,832108498E0	9,833052421E0
1,713509436E0	5,982056633E-2	1,316052526E-1	9,829715729E0	9,830778695E0
1,714705426E0	6,221338734E-2	1,411765367E-1	9,834501266E0	9,835711285E0
1,715901468E0	7,896314561E-2	1,363908947E-1	9,870393753E0	9,871651863E0
1,717097457E0	8,135596663E-2	1,244267747E-1	9,923035622E0	9,924149171E0
1,718293447E0	8,135596663E-2	1,172483116E-1	9,968499184E0	9,969520647E0
1,719489489E0	7,657032460E-2	1,339980662E-1	9,978070259E0	9,979263730E0
1,720685478E0	8,135596663E-2	1,627119333E-1	9,937392235E0	9,939057219E0
1,721881520E0	1,100698411E-1	1,770688742E-1	9,853643417E0	9,855848891E0
1,723077509E0	1,411765367E-1	1,603191197E-1	9,765109062E0	9,767445318E0
1,724273499E0	1,507478207E-1	1,363908947E-1	9,705288887E0	9,707417770E0
1,725469541E0	1,339980662E-1	1,268195957E-1	9,681360245E0	9,683118035E0
1,726665530E0	1,196411327E-1	1,172483116E-1	9,681360245E0	9,682809373E0
1,727861520E0	1,196411327E-1	1,172483116E-1	9,705288887E0	9,706734443E0
1,729057561E0	1,363908947E-1	1,124626622E-1	9,755537987E0	9,757139526E0
1,730253551E0	1,411765367E-1	8,853443712E-2	9,815358162E0	9,816772637E0
1,731449593E0	1,292124242E-1	7,178468257E-2	9,844072342E0	9,845182028E0
1,732645582E0	1,076770201E-1	8,614161611E-2	9,824930191E0	9,825897820E0
1,733841572E0	9,810572863E-2	1,028913707E-1	9,767501831E0	9,768536399E0
1,735037614E0	1,100698411E-1	1,004985496E-1	9,678967476E0	9,680115016E0
1,736233603E0	1,244267747E-1	7,178468257E-2	9,604789734E0	9,605863881E0
1,737429645E0	1,363908947E-1	5,024927482E-2	9,573683739E0	9,574787089E0
1,738625634E0	1,339980662E-1	4,546362907E-2	9,597611427E0	9,598654465E0
1,739821624E0	1,363908947E-1	5,264209956E-2	9,671789169E0	9,672894055E0
1,741017666E0	1,507478207E-1	6,221338734E-2	9,750752449E0	9,752116116E0
1,742213655E0	1,459621787E-1	6,939185411E-2	9,808179855E0	9,809511316E0
1,743409697E0	1,268195957E-1	6,221338734E-2	9,827322960E0	9,828338124E0
1,744605686E0	1,076770201E-1	5,742774159E-2	9,817750931E0	9,818509338E0
1,745801676E0	1,004985496E-1	7,417750359E-2	9,793823242E0	9,794619746E0
1,746997718E0	1,124626622E-1	9,332008660E-2	9,745966911E0	9,747062508E0
1,748193707E0	1,148554832E-1	9,092725813E-2	9,695717812E0	9,696824399E0
1,749389697E0	9,810572863E-2	7,178468257E-2	9,674181938E0	9,674945682E0
1,750585739E0	7,896314561E-2	6,460621208E-2	9,693324089E0	9,693860997E0
1,751781728E0	6,460621208E-2	7,657032460E-2	9,736394882E0	9,736910305E0
1,752977770E0	4,546362907E-2	8,853443712E-2	9,798608780E0	9,799114210E0
1,754173759E0	3,589234129E-2	8,135596663E-2	9,856036186E0	9,856437306E0
1,755369749E0	5,024927482E-2	6,939185411E-2	9,887143135E0	9,887514328E0
1,756565791E0	6,460621208E-2	5,982056633E-2	9,903892517E0	9,904283894E0
1,757761780E0	5,982056633E-2	7,896314561E-2	9,913464546E0	9,913959501E0
1,758957770E0	5,024927482E-2	1,028913707E-1	9,901499748E0	9,902161829E0
1,760153811E0	4,307080805E-2	1,004985496E-1	9,872786522E0	9,873391958E0
1,761349801E0	4,067798331E-2	1,004985496E-1	9,853643417E0	9,854239862E0
1,762545843E0	4,067798331E-2	9,571290761E-2	9,856036186E0	9,856584853E0
1,763741832E0	2,392822690E-2	9,092725813E-2	9,858428955E0	9,858877309E0
1,764937822E0	1,196411345E-2	1,052841991E-1	9,858428955E0	9,858998396E0
1,766133864E0	4,785645287E-3	1,220339537E-1	9,856036186E0	9,856792810E0
1,767329853E0	7,178467698E-3	1,124626622E-1	9,839286804E0	9,839932124E0
1,768525895E0	1,674975827E-2	9,571290761E-2	9,832108498E0	9,832588623E0
1,769721884E0	2,153540403E-2	1,028913707E-1	9,844072342E0	9,844633598E0
1,770917874E0	1,674975827E-2	1,124626622E-1	9,879964828E0	9,880619081E0
1,772113916E0	0,000000000E0	1,196411327E-1	9,915857315E0	9,916579062E0
1,773309905E0	0,000000000E0	1,244267747E-1	9,934999466E0	9,935778601E0
1,774505895E0	1,674975827E-2	1,268195957E-1	9,956535339E0	9,957357065E0
1,775701936E0	2,153540403E-2	1,292124242E-1	9,970891953E0	9,971752401E0
1,776897926E0	2,392822690E-2	1,483550072E-1	9,961320877E0	9,962454285E0
1,778093916E0	2,871387079E-2	1,722832322E-1	9,937392235E0	9,938927026E0
1,779289957E0	3,589234129E-2	1,818545163E-1	9,903892517E0	9,905627003E0
1,780485947E0	4,546362907E-2	1,914258152E-1	9,863214493E0	9,865176679E0
1,781681989E0	5,024927482E-2	1,842473447E-1	9,832108498E0	9,833963066E0
1,782877978E0	4,546362907E-2	1,627119333E-1	9,822537422E0	9,823990204E0
1,784073968E0	3,589234129E-2	1,603191197E-1	9,827322960E0	9,828696101E0
1,785270009E0	3,110669367E-2	1,651047617E-1	9,853643417E0	9,855075637E0
1,786465999E0	4,546362907E-2	1,531406492E-1	9,868000984E0	9,869293917E0
1,787662041E0	5,742774159E-2	1,387837082E-1	9,863214493E0	9,864358012E0
1,788858030E0	6,221338734E-2	1,339980662E-1	9,863214493E0	9,864320865E0
1,790054020E0	7,178468257E-2	1,339980662E-1	9,865608215E0	9,866779311E0
1,791250061E0	8,614161611E-2	1,435693651E-1	9,858428955E0	9,859850608E0
1,792446051E0	8,374879509E-2	1,387837082E-1	9,841679573E0	9,843014355E0
1,793642041E0	7,178468257E-2	1,196411327E-1	9,817750931E0	9,818742301E0
1,794838082E0	6,939185411E-2	1,052841991E-1	9,791430473E0	9,792242374E0
1,796034072E0	6,460621208E-2	9,810572863E-2	9,779465675E0	9,780171143E0
1,797230061E0	5,503492057E-2	1,052841991E-1	9,796216011E0	9,796936345E0
1,798426103E0	5,742774159E-2	1,124626622E-1	9,822537422E0	9,823349083E0
1,799622093E0	5,742774159E-2	1,076770201E-1	9,822537422E0	9,823295460E0
1,800818134E0	5,742774159E-2	1,004985496E-1	9,801001549E0	9,801685022E0
1,802014124E0	6,221338734E-2	8,853443712E-2	9,777072906E0	9,777671679E0
1,803210114E0	5,982056633E-2	8,614161611E-2	9,769894600E0	9,770457480E0
1,804406155E0	5,982056633E-2	1,028913707E-1	9,765109062E0	9,765834328E0
1,805602145E0	5,982056633E-2	1,076770201E-1	9,753145218E0	9,753923030E0
1,806798186E0	6,460621208E-2	9,571290761E-2	9,738788605E0	9,739473210E0
1,807994176E0	6,460621208E-2	9,092725813E-2	9,729216576E0	9,729855955E0
1,809190166E0	6,699903309E-2	9,810572863E-2	9,738788605E0	9,739513186E0
1,810386207E0	6,221338734E-2	1,052841991E-1	9,765109062E0	9,765874782E0
1,811582197E0	6,221338734E-2	1,076770201E-1	9,793823242E0	9,794612731E0
1,812778186E0	7,657032460E-2	9,810572863E-2	9,815358162E0	9,816147085E0
1,813974228E0	7,657032460E-2	9,571290761E-2	9,820143700E0	9,820908627E0
1,815170218E0	6,939185411E-2	1,052841991E-1	9,832108498E0	9,832917039E0
1,816366259E0	5,982056633E-2	1,244267747E-1	9,836894035E0	9,837862816E0
1,817562249E0	5,024927482E-2	1,411765367E-1	9,827322960E0	9,828465412E0
1,818758239E0	4,546362907E-2	1,411765367E-1	9,803394318E0	9,804516199E0
1,819954280E0	5,024927482E-2	1,339980662E-1	9,769894600E0	9,770942686E0
1,821150270E0	4,067798331E-2	1,363908947E-1	9,745966911E0	9,747006115E0
1,822346259E0	3,828516230E-2	1,459621787E-1	9,743574142E0	9,744742571E0
1,823542301E0	4,067798331E-2	1,507478207E-1	9,757930756E0	9,759179896E0
1,824738291E0	3,110669367E-2	1,555334777E-1	9,781859398E0	9,783145280E0
1,825934332E0	2,153540403E-2	1,459621787E-1	9,805787086E0	9,806897018E0
1,827130322E0	1,914258115E-2	1,363908947E-1	9,808179855E0	9,809146802E0
1,828326311E0	1,196411345E-2	1,507478207E-1	9,812965393E0	9,814130519E0
1,829522353E0	1,674975827E-2	1,627119333E-1	9,812965393E0	9,814328583E0
1,830718343E0	2,392822690E-2	1,722832322E-1	9,796216011E0	9,797760061E0
1,831914332E0	1,914258115E-2	1,746760458E-1	9,781859398E0	9,783437609E0
1,833110374E0	1,674975827E-2	1,674975902E-1	9,789037704E0	9,790484931E0
1,834306364E0	1,435693540E-2	1,651047617E-1	9,815358162E0	9,816757181E0
1,835502405E0	2,392822644E-3	1,627119333E-1	9,846465111E0	9,847809710E0
1,836698395E0	-7,178467698E-3	1,674975902E-1	9,870393753E0	9,871817452E0
1,837894384E0	-1,196411345E-2	1,627119333E-1	9,882357597E0	9,883704265E0
1,839090426E0	-2,871387079E-2	1,531406492E-1	9,891928673E0	9,893155685E0
1,840286416E0	-3,110669367E-2	1,507478207E-1	9,896714211E0	9,897911128E0
1,841482457E0	-1,674975827E-2	1,555334777E-1	9,891928673E0	9,893165524E0
1,842678447E0	-1,435693540E-2	1,651047617E-1	9,889535904E0	9,890924431E0
1,843874436E0	-1,674975827E-2	1,722832322E-1	9,896714211E0	9,898227833E0
1,845070478E0	-2,153540403E-2	1,579262912E-1	9,906285286E0	9,907567444E0
1,846266468E0	-2,153540403E-2	1,483550072E-1	9,911071777E0	9,912205444E0
1,847462457E0	-7,178467698E-3	1,579262912E-1	9,927821159E0	9,929079777E0
1,848658499E0	4,785645287E-3	1,627119333E-1	9,946963310E0	9,948295189E0
1,849854489E0	-2,392822644E-3	1,531406492E-1	9,946963310E0	9,948142383E0
1,851050530E0	-4,785645287E-3	1,483550072E-1	9,927821159E0	9,928930712E0
1,852246520E0	2,392822644E-3	1,435693651E-1	9,906285286E0	9,907325878E0
1,853442509E0	2,392822644E-3	1,507478207E-1	9,887143135E0	9,888292573E0
1,854638551E0	-7,178467698E-3	1,483550072E-1	9,882357597E0	9,883473702E0
1,855834541E0	-7,178467698E-3	1,339980662E-1	9,882357597E0	9,883268624E0
1,857030530E0	2,392822644E-3	1,196411327E-1	9,872786522E0	9,873511707E0
1,858226572E0	7,178467698E-3	1,148554832E-1	9,868000984E0	9,868671984E0
1,859422561E0	4,785645287E-3	1,196411327E-1	9,865608215E0	9,866334799E0
1,860618603E0	2,392822644E-3	1,172483116E-1	9,853643417E0	9,854341251E0
1,861814593E0	2,392822644E-3	1,076770201E-1	9,853643417E0	9,854232018E0
1,863010582E0	0,000000000E0	9,332008660E-2	9,860821724E0	9,861263292E0
1,864206624E0	4,785645287E-3	7,657032460E-2	9,858428955E0	9,858727473E0
1,865402614E0	1,196411345E-2	7,417750359E-2	9,853643417E0	9,853929878E0
1,866598603E0	1,674975827E-2	8,614161611E-2	9,853643417E0	9,854034175E0
1,867794645E0	1,435693540E-2	9,810572863E-2	9,856036186E0	9,856534896E0
1,868990634E0	4,785645287E-3	9,092725813E-2	9,839286804E0	9,839708100E0
1,870186676E0	-7,178467698E-3	8,374879509E-2	9,817750931E0	9,818110752E0
1,871382666E0	-1,196411345E-2	9,092725813E-2	9,810572624E0	9,811001280E0
1,872578655E0	4,785645287E-3	1,100698411E-1	9,798608780E0	9,799228148E0
1,873774697E0	2,392822690E-2	1,124626622E-1	9,779465675E0	9,780141579E0
1,874970686E0	2,392822690E-2	1,076770201E-1	9,762716293E0	9,763339404E0
1,876166676E0	1,435693540E-2	1,148554832E-1	9,750752449E0	9,751439444E0
1,877362718E0	4,785645287E-3	1,244267747E-1	9,755537987E0	9,756332627E0
1,878558707E0	2,392822644E-3	1,292124242E-1	9,777072906E0	9,777926989E0
1,879754749E0	4,785645287E-3	1,363908947E-1	9,803394318E0	9,804344217E0
1,880950739E0	-7,178467698E-3	1,339980662E-1	9,822537422E0	9,823453997E0
1,882146728E0	-9,571290575E-3	1,268195957E-1	9,836894035E0	9,837716152E0
1,883342770E0	0,000000000E0	1,196411327E-1	9,839286804E0	9,840014167E0
1,884538759E0	-2,392822644E-3	1,124626622E-1	9,827322960E0	9,827966734E0
1,885734749E0	-2,392822644E-3	1,100698411E-1	9,810572624E0	9,811190362E0
1,886930791E0	0,000000000E0	1,028913707E-1	9,786644936E0	9,787185792E0
1,888126780E0	-7,178467698E-3	1,028913707E-1	9,769894600E0	9,770439021E0
1,889322822E0	-1,196411345E-2	1,148554832E-1	9,750752449E0	9,751436214E0
1,890518811E0	-1,914258115E-2	1,148554832E-1	9,731609344E0	9,732305927E0
1,891714801E0	-9,571290575E-3	1,004985496E-1	9,726823807E0	9,727347682E0
1,892910843E0	-2,392822644E-3	9,810572863E-2	9,738788605E0	9,739283030E0
1,894106832E0	-1,196411345E-2	1,076770201E-1	9,745966911E0	9,746569064E0
1,895302822E0	-1,196411345E-2	1,052841991E-1	9,748359680E0	9,748935550E0
1,896498864E0	-1,196411345E-2	1,004985496E-1	9,757930756E0	9,758455602E0
1,897694853E0	-1,435693540E-2	1,076770201E-1	9,769894600E0	9,770498501E0
1,898890895E0	-2,392822690E-2	1,220339537E-1	9,781859398E0	9,782649852E0
1,900086884E0	-4,067798331E-2	1,339980662E-1	9,791430473E0	9,792431817E0
1,901282874E0	-4,546362907E-2	1,363908947E-1	9,812965393E0	9,814018505E0
1,902478916E0	-4,546362907E-2	1,316052526E-1	9,836894035E0	9,837879403E0
1,903674905E0	-3,589234129E-2	1,220339537E-1	9,853643417E0	9,854464427E0
1,904870895E0	-3,349951655E-2	1,220339537E-1	9,863214493E0	9,864026289E0
1,906066936E0	-3,828516230E-2	1,316052526E-1	9,868000984E0	9,868952787E0
1,907262926E0	-3,110669367E-2	1,339980662E-1	9,879964828E0	9,880922433E0
1,908458968E0	-3,589234129E-2	1,292124242E-1	9,884750366E0	9,885660014E0
1,909654957E0	-3,828516230E-2	1,244267747E-1	9,882357597E0	9,883215037E0
1,910850947E0	-3,828516230E-2	1,148554832E-1	9,887143135E0	9,887884349E0
1,912046989E0	-4,307080805E-2	1,100698411E-1	9,899106979E0	9,899812597E0
1,913242978E0	-4,307080805E-2	1,100698411E-1	9,901499748E0	9,902205195E0
1,914438968E0	-4,785645381E-2	1,052841991E-1	9,899106979E0	9,899782522E0
1,915635009E0	-4,307080805E-2	1,124626622E-1	9,899106979E0	9,899839490E0
1,916830999E0	-2,871387079E-2	1,220339537E-1	9,891928673E0	9,892723065E0
1,918027041E0	-3,349951655E-2	1,339980662E-1	9,887143135E0	9,888107861E0
1,919223030E0	-3,828516230E-2	1,435693651E-1	9,891928673E0	9,893044566E0
1,920419020E0	-3,589234129E-2	1,292124242E-1	9,903892517E0	9,904800407E0
1,921615061E0	-2,871387079E-2	1,220339537E-1	9,903892517E0	9,904685950E0
1,922811051E0	-2,392822690E-2	1,124626622E-1	9,903892517E0	9,904559930E0
1,924007041E0	-1,435693540E-2	1,100698411E-1	9,901499748E0	9,902121932E0
1,925203082E0	-9,571290575E-3	1,172483116E-1	9,887143135E0	9,887842947E0
1,926399072E0	-1,674975827E-2	1,172483116E-1	9,870393753E0	9,871104323E0
1,927595114E0	-2,632104978E-2	1,196411327E-1	9,858428955E0	9,859190041E0
1,928791103E0	-2,153540403E-2	1,339980662E-1	9,860821724E0	9,861755641E0
1,929987093E0	-9,571290575E-3	1,411765367E-1	9,858428955E0	9,859444400E0
1,931183134E0	2,392822644E-3	1,316052526E-1	9,858428955E0	9,859307640E0
1,932379124E0	2,392822644E-3	1,220339537E-1	9,868000984E0	9,868755820E0
1,933575114E0	4,785645287E-3	1,220339537E-1	9,879964828E0	9,880719620E0
1,934771155E0	1,674975827E-2	1,363908947E-1	9,884750366E0	9,885705480E0
1,935967145E0	1,674975827E-2	1,435693651E-1	9,884750366E0	9,885807125E0
1,937163186E0	1,674975827E-2	1,483550072E-1	9,875179291E0	9,876307801E0
1,938359176E0	2,153540403E-2	1,507478207E-1	9,858428955E0	9,859604969E0
1,939555166E0	1,196411345E-2	1,363908947E-1	9,839286804E0	9,840239348E0
1,940751207E0	7,178467698E-3	1,292124242E-1	9,817750931E0	9,818603807E0
1,941947197E0	1,674975827E-2	1,387837082E-1	9,808179855E0	9,809175987E0
1,943143186E0	3,110669367E-2	1,411765367E-1	9,805787086E0	9,806852646E0
1,944339228E0	3,589234129E-2	1,339980662E-1	9,796216011E0	9,797198165E0
1,945535218E0	3,110669367E-2	1,292124242E-1	9,796216011E0	9,797117515E0
1,946731259E0	3,110669367E-2	1,268195957E-1	9,801001549E0	9,801871362E0
1,947927249E0	1,914258115E-2	1,196411327E-1	9,805787086E0	9,806535618E0
1,949123239E0	1,674975827E-2	1,220339537E-1	9,812965393E0	9,813738464E0
1,950319280E0	2,632104978E-2	1,292124242E-1	9,820143700E0	9,821029016E0
1,951515270E0	3,110669367E-2	1,220339537E-1	9,827322960E0	9,828129856E0
1,952711259E0	3,110669367E-2	1,244267747E-1	9,822537422E0	9,823374729E0
1,953907301E0	3,110669367E-2	1,363908947E-1	9,810572624E0	9,811569972E0
1,955103291E0	4,067798331E-2	1,339980662E-1	9,803394318E0	9,804394440E0
1,956299332E0	4,546362907E-2	1,268195957E-1	9,789037704E0	9,789964726E0
1,957495322E0	4,067798331E-2	1,268195957E-1	9,784252167E0	9,785158577E0
1,958691311E0	3,349951655E-2	1,268195957E-1	9,786644936E0	9,787523922E0
1,959887353E0	3,349951655E-2	1,316052526E-1	9,784252167E0	9,785194562E0
1,961083343E0	2,871387079E-2	1,387837082E-1	9,774680138E0	9,775707504E0
1,962279332E0	2,392822690E-2	1,435693651E-1	9,765109062E0	9,766193717E0
1,963475374E0	2,632104978E-2	1,411765367E-1	9,769894600E0	9,770950010E0
1,964671364E0	2,871387079E-2	1,363908947E-1	9,786644936E0	9,787637409E0
1,965867405E0	3,349951655E-2	1,363908947E-1	9,798608780E0	9,799615233E0
1,967063395E0	3,828516230E-2	1,411765367E-1	9,801001549E0	9,802093038E0
1,968259384E0	3,110669367E-2	1,316052526E-1	9,796216011E0	9,797149366E0
1,969455426E0	1,914258115E-2	1,363908947E-1	9,793823242E0	9,794791606E0
1,970651416E0	1,674975827E-2	1,627119333E-1	9,803394318E0	9,804758838E0
1,971847405E0	2,392822690E-2	1,674975902E-1	9,820143700E0	9,821601208E0
1,973043447E0	2,871387079E-2	1,555334777E-1	9,827322960E0	9,828595612E0
1,974239436E0	3,349951655E-2	1,483550072E-1	9,832108498E0	9,833284748E0
1,975435426E0	3,349951655E-2	1,555334777E-1	9,834501266E0	9,835788125E0
1,976631468E0	2,153540403E-2	1,627119333E-1	9,839286804E0	9,840655657E0
1,977827457E0	1,914258115E-2	1,698904037E-1	9,848857880E0	9,850341655E0
1,979023499E0	3,589234129E-2	1,770688742E-1	9,851250648E0	9,852907235E0
1,980219489E0	3,828516230E-2	1,842473447E-1	9,846465111E0	9,848263198E0
1,981415478E0	2,632104978E-2	1,866401732E-1	9,827322960E0	9,829130374E0
