"Time (s)"	"Acceleration x (m/s^2)"	"Acceleration y (m/s^2)"	"Acceleration z (m/s^2)"	"Absolute acceleration (m/s^2)"
3,051028100E-2	-3,110669367E-2	1,116491032E1	2,172683001E0	1,137438972E1
3,170632300E-2	-6,699903309E-2	1,124148083E1	2,194218397E0	1,145381921E1
3,290236500E-2	-1,052841991E-1	1,130130100E1	2,196611166E0	1,151327884E1
3,409840600E-2	-1,244267747E-1	1,136590767E1	2,194218397E0	1,157643872E1
3,529444800E-2	-1,268195957E-1	1,143769264E1	2,189432621E0	1,164605132E1
3,649049000E-2	-1,268195957E-1	1,150947666E1	2,172683001E0	1,171344047E1
3,768647900E-2	-1,387837082E-1	1,157886887E1	2,158325911E0	1,177912713E1
3,888252100E-2	-1,627119333E-1	1,164108181E1	2,124826431E0	1,183453202E1
4,007856300E-2	-1,866401732E-1	1,169611740E1	2,072184324E0	1,187972831E1
4,127460400E-2	-2,057827413E-1	1,174636650E1	2,009970903E0	1,191886973E1
4,247064600E-2	-2,225325108E-1	1,179183006E1	1,938186288E0	1,195212713E1
4,366663500E-2	-2,344966233E-1	1,183011532E1	1,859223247E0	1,197761780E1
4,486267700E-2	-2,297109663E-1	1,186122227E1	1,770688772E0	1,199486138E1
4,605871900E-2	-2,249253243E-1	1,189472103E1	1,677368641E0	1,201451395E1
4,725476000E-2	-2,297109663E-1	1,192822075E1	1,567298889E0	1,203293992E1
4,845080200E-2	-2,201396823E-1	1,193779182E1	1,438086390E0	1,202611440E1
4,964684400E-2	-1,914258152E-1	1,194975662E1	1,301695466E0	1,202196898E1
5,084288500E-2	-1,746760458E-1	1,197607708E1	1,158126116E0	1,203321196E1
5,203887500E-2	-1,579262912E-1	1,200957680E1	1,002592683E0	1,205238846E1
5,323491700E-2	-1,316052526E-1	1,203111267E1	8,494520187E-1	1,206178100E1
5,443095800E-2	-1,100698411E-1	1,203589821E1	6,891329288E-1	1,205611319E1
5,562700000E-2	-1,100698411E-1	1,204307652E1	5,120640397E-1	1,205446046E1
5,682304200E-2	-1,148554832E-1	1,205025482E1	3,302095234E-1	1,205532544E1
5,801903100E-2	-1,076770201E-1	1,205504036E1	1,603191197E-1	1,205658719E1
5,921507300E-2	-1,052841991E-1	1,206939697E1	4,785645287E-3	1,206985712E1
6,041111500E-2	-1,076770201E-1	1,206939697E1	-1,531406492E-1	1,207084876E1
6,160715600E-2	-1,028913707E-1	1,205743313E1	-3,110669553E-1	1,206188389E1
6,280319800E-2	-1,028913707E-1	1,206221867E1	-4,522434771E-1	1,207113209E1
6,399924000E-2	-1,124626622E-1	1,206221867E1	-5,814558864E-1	1,207674865E1
6,519522900E-2	-1,339980662E-1	1,204546928E1	-7,130611539E-1	1,206730053E1
6,639127100E-2	-1,507478207E-1	1,202871990E1	-8,398807645E-1	1,205894801E1
6,758731300E-2	-1,555334777E-1	1,202154064E1	-9,523434043E-1	1,206020680E1
6,878335400E-2	-1,531406492E-1	1,200718403E1	-1,050449133E0	1,205401857E1
6,997934400E-2	-1,411765367E-1	1,200000572E1	-1,148554921E0	1,205567280E1
7,117538500E-2	-1,363908947E-1	1,200479126E1	-1,232303619E0	1,206864482E1
7,237142700E-2	-1,316052526E-1	1,200957680E1	-1,308874011E0	1,208140745E1
7,356746900E-2	-1,052841991E-1	1,200000572E1	-1,383051515E0	1,207990288E1
7,476351000E-2	-8,614161611E-2	1,199282742E1	-1,459621787E0	1,208163174E1
7,595955200E-2	-7,657032460E-2	1,199282742E1	-1,533799291E0	1,209075319E1
7,715559400E-2	-6,460621208E-2	1,199522018E1	-1,603191137E0	1,210205367E1
7,835158300E-2	-4,307080805E-2	1,199761295E1	-1,665404558E0	1,211272653E1
7,954762500E-2	-7,178467698E-3	1,200239849E1	-1,718046665E0	1,212473940E1
8,074366700E-2	2,632104978E-2	1,200957680E1	-1,773081541E0	1,213978772E1
8,193970800E-2	5,742774159E-2	1,202393341E1	-1,832902193E0	1,216296851E1
8,313575000E-2	9,571290761E-2	1,203829098E1	-1,890329838E0	1,218617895E1
8,433174000E-2	1,507478207E-1	1,205264759E1	-1,945364833E0	1,220956523E1
8,552778100E-2	2,129612118E-1	1,205504036E1	-2,005185366E0	1,222252506E1
8,672382300E-2	2,727817893E-1	1,205025482E1	-2,062613010E0	1,222854953E1
8,791986500E-2	3,373879790E-1	1,204546928E1	-2,105684042E0	1,223278653E1
8,911590600E-2	4,067798555E-1	1,202393341E1	-2,146361828E0	1,222077385E1
9,031194800E-2	4,689932466E-1	1,198804188E1	-2,184647083E0	1,219449817E1
9,150793800E-2	5,168496966E-1	1,195214939E1	-2,196611166E0	1,216330996E1
9,270397900E-2	5,599204898E-1	1,192343521E1	-2,189432621E0	1,213570902E1
9,390002100E-2	6,053841114E-1	1,188275719E1	-2,172683001E0	1,209491462E1
9,509606300E-2	6,388836503E-1	1,184207916E1	-2,146361828E0	1,205196583E1
9,629210400E-2	6,699903607E-1	1,180379391E1	-2,110469580E0	1,200968441E1
9,748809400E-2	6,963114142E-1	1,174158096E1	-2,050648928E0	1,193962873E1
9,868413500E-2	7,034898400E-1	1,167218876E1	-1,978864312E0	1,185962868E1
9,988017700E-2	7,082754970E-1	1,160758305E1	-1,907079697E0	1,178450641E1
1,010762190E-1	7,130611539E-1	1,154776192E1	-1,820937991E0	1,171217643E1
1,022722600E-1	7,154539824E-1	1,148315620E1	-1,710868239E0	1,163193109E1
1,034683020E-1	7,130611539E-1	1,140897846E1	-1,591227055E0	1,154145785E1
1,046642920E-1	7,154539824E-1	1,134197903E1	-1,469193101E0	1,145909643E1
1,058603330E-1	7,178468108E-1	1,128933716E1	-1,328016520E0	1,138982289E1
1,070563750E-1	7,130611539E-1	1,122712421E1	-1,174875975E0	1,131092869E1
1,082524170E-1	7,082754970E-1	1,116251755E1	-1,009771109E0	1,123045368E1
1,094484580E-1	6,987041831E-1	1,110030460E1	-8,327022791E-1	1,115340051E1
1,106444480E-1	6,939185858E-1	1,105005455E1	-6,436693072E-1	1,109051571E1
1,118404900E-1	7,010970116E-1	1,100459099E1	-4,450650215E-1	1,103587979E1
1,130365310E-1	7,130611539E-1	1,095194912E1	-2,344966233E-1	1,097764248E1
1,142325730E-1	7,154539824E-1	1,090648556E1	-2,153540403E-2	1,092994810E1
1,154286150E-1	7,010970116E-1	1,085623646E1	1,818545163E-1	1,088037123E1
1,166246560E-1	6,843472719E-1	1,079162979E1	3,828516304E-1	1,082008226E1
1,178206460E-1	6,843472719E-1	1,073420238E1	5,790630579E-1	1,077157120E1
1,190166880E-1	6,867401004E-1	1,067198944E1	7,800601721E-1	1,072247474E1
1,202127290E-1	6,675975323E-1	1,061934662E1	9,882357717E-1	1,068610401E1
1,214087710E-1	6,652047038E-1	1,057627583E1	1,191625714E0	1,066396172E1
1,226048130E-1	6,699903607E-1	1,052124119E1	1,390229940E0	1,063382069E1
1,238008540E-1	6,795616150E-1	1,046620655E1	1,588834286E0	1,060790639E1
1,249968440E-1	6,963114142E-1	1,040877819E1	1,794616938E0	1,058528049E1
1,261928850E-1	7,082754970E-1	1,034656525E1	1,988435626E0	1,055968479E1
1,273889270E-1	7,154539824E-1	1,029153061E1	2,170290232E0	1,054218366E1
1,285849690E-1	7,250252366E-1	1,022931671E1	2,337787628E0	1,051807173E1
1,297810100E-1	7,226324677E-1	1,016710377E1	2,502892494E0	1,049555466E1
1,309770000E-1	7,154539824E-1	1,011206818E1	2,677568436E0	1,048499737E1
1,321730420E-1	7,178468108E-1	1,005703354E1	2,864208698E0	1,048155137E1
1,333690830E-1	7,202396393E-1	1,000678444E1	3,048455954E0	1,048558838E1
1,345651250E-1	7,202396393E-1	9,958928108E0	3,235096216E0	1,049594406E1
1,357611670E-1	7,202396393E-1	9,920642853E0	3,397808075E0	1,051108936E1
1,369572080E-1	7,202396393E-1	9,882357597E0	3,522234917E0	1,051598191E1
1,381531980E-1	7,250252366E-1	9,841679573E0	3,634697676E0	1,051643217E1
1,393492400E-1	7,298108935E-1	9,793823242E0	3,756731510E0	1,051497167E1
1,405452810E-1	7,226324677E-1	9,755537987E0	3,883551121E0	1,052495551E1
1,417413230E-1	7,202396393E-1	9,724431038E0	4,010370731E0	1,054354673E1
1,429373650E-1	7,369893789E-1	9,702896118E0	4,125226021E0	1,056914548E1
1,441333540E-1	7,657032609E-1	9,681360245E0	4,232903481E0	1,059398459E1
1,453293960E-1	7,920243144E-1	9,652647018E0	4,321437836E0	1,060545718E1
1,465254380E-1	8,279166222E-1	9,633503914E0	4,383651257E0	1,061631960E1
1,477214790E-1	8,638089895E-1	9,611968994E0	4,424329281E0	1,061653444E1
1,489175210E-1	8,901300430E-1	9,588040352E0	4,448257446E0	1,060706574E1
1,501135100E-1	9,355936646E-1	9,552147865E0	4,460221291E0	1,058359288E1
1,513095520E-1	9,810572863E-1	9,516255379E0	4,457828522E0	1,055432731E1
1,525055940E-1	1,012163997E0	9,492327690E0	4,450650215E0	1,053266577E1
1,537016350E-1	1,050449133E0	9,470791817E0	4,426722050E0	1,050691244E1
1,548976770E-1	1,093519926E0	9,434899330E0	4,369294167E0	1,045484781E1
1,560937190E-1	1,127019525E0	9,399007797E0	4,287938118E0	1,039220544E1
1,572897080E-1	1,165304661E0	9,365508080E0	4,194618225E0	1,032789904E1
1,584857500E-1	1,208375454E0	9,334401131E0	4,082155228E0	1,025939604E1
1,596817920E-1	1,256231904E0	9,315258980E0	3,957728624E0	1,019881289E1
1,608778330E-1	1,292124271E0	9,291330338E0	3,823730469E0	1,013011941E1
1,620738750E-1	1,323230863E0	9,265008926E0	3,680161238E0	1,005658576E1
1,632699170E-1	1,359123230E0	9,257830620E0	3,529413462E0	1,000057014E1
1,644659060E-1	1,399801254E0	9,255437851E0	3,381058455E0	9,952594116E0
1,656619480E-1	1,438086390E0	9,245866776E0	3,223132133E0	9,896601722E0
1,668579900E-1	1,459621787E0	9,245866776E0	3,062813044E0	9,848724381E0
1,680540310E-1	1,478764415E0	9,260223389E0	2,916850805E0	9,820717898E0
1,692500730E-1	1,497906923E0	9,262616158E0	2,782852650E0	9,786932722E0
1,704460630E-1	1,509871125E0	9,262616158E0	2,658426046E0	9,754127226E0
1,716421040E-1	1,529013634E0	9,274580956E0	2,543570518E0	9,737837829E0
1,728381460E-1	1,543370605E0	9,286544800E0	2,435893536E0	9,723964441E0
1,740341880E-1	1,552941918E0	9,286544800E0	2,333002090E0	9,700228950E0
1,752302290E-1	1,569691658E0	9,291330338E0	2,232503414E0	9,683843392E0
1,764262710E-1	1,591227055E0	9,303294182E0	2,146361828E0	9,679367504E0
1,776222600E-1	1,598405480E0	9,303294182E0	2,065006018E0	9,662837708E0
1,788183020E-1	1,596012712E0	9,298508644E0	1,978864312E0	9,639783376E0
1,800143440E-1	1,596012712E0	9,300901413E0	1,883151412E0	9,622904079E0
1,812103850E-1	1,600798368E0	9,303294182E0	1,797009826E0	9,609530809E0
1,824064270E-1	1,588834286E0	9,305686951E0	1,715653777E0	9,594981599E0
1,836024690E-1	1,560120344E0	9,298508644E0	1,624726534E0	9,567443483E0
1,847984580E-1	1,538584948E0	9,293723106E0	1,531406522E0	9,543884888E0
1,859945000E-1	1,524227977E0	9,305686951E0	1,433300734E0	9,537999347E0
1,871905420E-1	1,521835208E0	9,312865257E0	1,344766378E0	9,531727981E0
1,883865830E-1	1,517049551E0	9,320044518E0	1,272981644E0	9,528124234E0
1,895826250E-1	1,502692580E0	9,334401131E0	1,201196909E0	9,530582536E0
1,907786150E-1	1,476371527E0	9,346364975E0	1,124626637E0	9,528850728E0
1,919746560E-1	1,445264935E0	9,365508080E0	1,043270707E0	9,533621877E0
1,931706980E-1	1,409372568E0	9,379864693E0	9,595218897E-1	9,533565699E0
1,943667400E-1	1,375872970E0	9,406186104E0	8,853443861E-1	9,547418401E0
1,955627810E-1	1,344766378E0	9,439684868E0	8,159525394E-1	9,569839370E0
1,967588230E-1	1,313659668E0	9,473184586E0	7,561319470E-1	9,593678306E0
1,979548130E-1	1,284945726E0	9,499505997E0	7,058826685E-1	9,611970144E0
1,991508540E-1	1,251446247E0	9,528220177E0	6,484549642E-1	9,631904863E0
2,003468960E-1	1,222732425E0	9,571290970E0	6,077769399E-1	9,668199327E0
2,015429380E-1	1,191625714E0	9,600004196E0	5,862415433E-1	9,691425672E0
2,027389790E-1	1,158126116E0	9,626325607E0	5,718846321E-1	9,712592488E0
2,039349690E-1	1,131805062E0	9,652647018E0	5,647061467E-1	9,735166675E0
2,051310100E-1	1,100698471E0	9,674181938E0	5,575276613E-1	9,752546867E0
2,063270520E-1	1,069591761E0	9,678967476E0	5,527420044E-1	9,753561486E0
2,075230940E-1	1,031306505E0	9,671789169E0	5,599204898E-1	9,742720862E0
2,087191350E-1	9,930213690E-1	9,655039787E0	5,647061467E-1	9,722385395E0
2,099151250E-1	9,547362328E-1	9,635896683E0	5,670989752E-1	9,699671510E0
2,111111670E-1	9,068797827E-1	9,626325607E0	5,838487148E-1	9,686560533E0
2,123072080E-1	8,638089895E-1	9,616754532E0	6,173482537E-1	9,675187469E0
2,135032500E-1	8,327022791E-1	9,604789734E0	6,675975323E-1	9,663905286E0
2,146992920E-1	8,159525394E-1	9,614361763E0	7,178468108E-1	9,675589631E0
2,158953330E-1	7,968099117E-1	9,628718376E0	7,776673436E-1	9,692878319E0
2,170913230E-1	7,680960894E-1	9,640682220E0	8,398807645E-1	9,707632305E0
2,182873650E-1	7,393822074E-1	9,662218094E0	9,092726111E-1	9,733032478E0
2,194834060E-1	7,154539824E-1	9,674181938E0	9,810572863E-1	9,750084306E0
2,206794480E-1	6,867401004E-1	9,671789169E0	1,055234790E0	9,753391111E0
2,218754900E-1	6,460621357E-1	9,676574707E0	1,127019525E0	9,763384011E0
2,230715310E-1	6,053841114E-1	9,664610863E0	1,186840057E0	9,756012627E0
2,242675210E-1	5,718846321E-1	9,638289452E0	1,244267821E0	9,735084899E0
2,254635630E-1	5,335994363E-1	9,623932838E0	1,294517040E0	9,725255061E0
2,266596040E-1	4,809573591E-1	9,590433121E0	1,349551916E0	9,696856078E0
2,278556460E-1	4,307080805E-1	9,549755096E0	1,414158225E0	9,663497055E0
2,290516880E-1	3,996013701E-1	9,518648148E0	1,478764415E0	9,641114459E0
2,302476770E-1	3,756731451E-1	9,487542152E0	1,543370605E0	9,619593506E0
2,314437190E-1	3,493520916E-1	9,454042435E0	1,603191137E0	9,595373211E0
2,326397600E-1	3,230310678E-1	9,420542717E0	1,667797327E0	9,572487768E0
2,338358020E-1	2,895315289E-1	9,377471924E0	1,741974831E0	9,542289269E0
2,350318440E-1	2,632105052E-1	9,324830055E0	1,806581140E0	9,501866698E0
2,362278850E-1	2,440679073E-1	9,279366493E0	1,868794441E0	9,468822753E0
2,374238750E-1	2,201396823E-1	9,238688469E0	1,933400750E0	9,441391029E0
2,386199170E-1	2,033899277E-1	9,190832138E0	2,000399828E0	9,408207179E0
2,398159580E-1	1,986042857E-1	9,142974854E0	2,067398787E0	9,375903721E0
2,410120000E-1	2,057827413E-1	9,111868858E0	2,127219439E0	9,359143292E0
2,422080420E-1	2,105683982E-1	9,075976372E0	2,184647083E0	9,337578328E0
2,434040310E-1	2,105683982E-1	9,030512810E0	2,244467735E0	9,307638587E0
2,446000730E-1	2,105683982E-1	8,985049248E0	2,306680918E0	9,278805197E0
2,457961150E-1	2,129612118E-1	8,939585686E0	2,354537487E0	9,246912538E0
2,469921560E-1	2,105683982E-1	8,901300430E0	2,392822742E0	9,219711985E0
2,481881980E-1	2,105683982E-1	8,860622406E0	2,431107759E0	9,190497996E0
2,493841880E-1	2,153540403E-1	8,817551613E0	2,459821701E0	9,156763435E0
2,505802290E-1	2,177468538E-1	8,774480820E0	2,481357098E0	9,121187444E0
2,517762710E-1	2,177468538E-1	8,733802795E0	2,505285263E0	9,088629116E0
2,529723130E-1	2,177468538E-1	8,702695847E0	2,531606436E0	9,066055362E0
2,541683540E-1	2,273181528E-1	8,676374435E0	2,550748825E0	9,046406273E0
2,553643960E-1	2,368894368E-1	8,645268440E0	2,553141832E0	9,017500553E0
2,565603850E-1	2,392822653E-1	8,609375954E0	2,555534601E0	8,983839236E0
2,577564270E-1	2,536391914E-1	8,573483467E0	2,553141832E0	8,949161124E0
2,589524690E-1	2,751746178E-1	8,537590981E0	2,541177750E0	8,912001188E0
2,601485100E-1	2,919243574E-1	8,499305725E0	2,524427891E0	8,871085267E0
2,613445520E-1	3,062812984E-1	8,463413239E0	2,486142635E0	8,826328630E0
2,625405940E-1	3,206382394E-1	8,439485550E0	2,435893536E0	8,789840871E0
2,637365830E-1	3,326023519E-1	8,420342445E0	2,380858421E0	8,756784686E0
2,649326250E-1	3,517449200E-1	8,408378601E0	2,325823545E0	8,731208986E0
2,661286670E-1	3,613162339E-1	8,396414757E0	2,273181438E0	8,706186538E0
2,673247080E-1	3,541377485E-1	8,384450912E0	2,225325108E0	8,681964207E0
2,685207500E-1	3,565305769E-1	8,374878883E0	2,170290232E0	8,658860783E0
2,697167400E-1	3,804588020E-1	8,374878883E0	2,120040894E0	8,647422657E0
2,709127810E-1	4,019941986E-1	8,394021988E0	2,074577332E0	8,655927193E0
2,721088230E-1	4,139583111E-1	8,420342445E0	2,026720762E0	8,670705013E0
2,733048650E-1	4,139583111E-1	8,449056625E0	1,990828395E0	8,690300170E0
2,745009060E-1	4,019941986E-1	8,477770805E0	1,959721804E0	8,710608860E0
2,756969480E-1	3,804588020E-1	8,504091263E0	1,916650891E0	8,725701562E0
2,768929380E-1	3,661018610E-1	8,532805443E0	1,883151412E0	8,745802338E0
2,780889790E-1	3,445664644E-1	8,575876236E0	1,842473388E0	8,778330562E0
2,792850210E-1	3,134597540E-1	8,604590416E0	1,792224169E0	8,794845122E0
2,804810630E-1	2,775674164E-1	8,630910873E0	1,744367719E0	8,809794828E0
2,816771040E-1	2,392822653E-1	8,673981667E0	1,691725612E0	8,840653228E0
2,828730940E-1	2,009970993E-1	8,709874153E0	1,646261930E0	8,866368250E0
2,840691350E-1	1,722832322E-1	8,736195564E0	1,588834286E0	8,881170465E0
2,852651770E-1	1,531406492E-1	8,757730484E0	1,526620865E0	8,891111660E0
2,864612190E-1	1,339980662E-1	8,788837433E0	1,462014675E0	8,910617589E0
2,876572600E-1	1,196411327E-1	8,824729919E0	1,395015597E0	8,935112796E0
2,888533020E-1	1,004985496E-1	8,855836868E0	1,337587833E0	8,956845863E0
2,900492920E-1	8,374879509E-2	8,889336586E0	1,275374413E0	8,980751566E0
2,912453330E-1	8,135596663E-2	8,930013657E0	1,208375454E0	9,011766416E0
2,924413750E-1	7,417750359E-2	8,977870941E0	1,148554921E0	9,051345057E0
2,936374170E-1	5,024927482E-2	9,016156197E0	1,095912814E0	9,082655033E0
2,948334580E-1	2,392822690E-2	9,044869423E0	1,040877819E0	9,104595657E0
2,960294480E-1	1,674975827E-2	9,078369141E0	9,858429432E-1	9,131755205E0
2,972254900E-1	1,674975827E-2	9,121439934E0	9,379864931E-1	9,169556460E0
2,984215310E-1	1,196411345E-2	9,162117958E0	9,020941257E-1	9,206428321E0
2,996175730E-1	2,392822644E-3	9,188439369E0	8,757730722E-1	9,230081378E0
3,008136150E-1	-1,196411345E-2	9,205188751E0	8,422735929E-1	9,243650139E0
3,020096560E-1	-1,674975827E-2	9,229117393E0	7,920243144E-1	9,263055162E0
3,032056460E-1	-2,392822644E-3	9,231510162E0	7,345965505E-1	9,260692074E0
3,044016880E-1	2,392822644E-3	9,221938133E0	6,771687865E-1	9,246767339E0
3,055977290E-1	7,178467698E-3	9,221938133E0	6,197410822E-1	9,242741664E0
3,067937710E-1	1,674975827E-2	9,224330902E0	5,431707501E-1	9,240324432E0
3,079898130E-1	2,153540403E-2	9,219545364E0	4,618147612E-1	9,231129583E0
3,091858020E-1	3,828516230E-2	9,205188751E0	3,924229145E-1	9,213629114E0
3,103818440E-1	6,699903309E-2	9,193224907E0	3,206382394E-1	9,199058753E0
3,115778850E-1	9,332008660E-2	9,176474571E0	2,368894368E-1	9,180006035E0
3,127739270E-1	1,052841991E-1	9,159725189E0	1,483550072E-1	9,161531505E0
3,139699690E-1	1,292124242E-1	9,157332420E0	6,460621208E-2	9,158471863E0
3,151660100E-1	1,483550072E-1	9,154939651E0	0,000000000E0	9,156141613E0
3,163620000E-1	1,579262912E-1	9,159725189E0	-5,503492057E-2	9,161251830E0
3,175580420E-1	1,698904037E-1	9,152546883E0	-1,052841991E-1	9,154728939E0
3,187540830E-1	1,698904037E-1	9,145368576E0	-1,603191197E-1	9,148351292E0
3,199501250E-1	1,651047617E-1	9,142974854E0	-2,105683982E-1	9,146889515E0
3,211461670E-1	1,531406492E-1	9,135796547E0	-2,344966233E-1	9,140088581E0
3,223421560E-1	1,507478207E-1	9,142974854E0	-2,392822653E-1	9,147347707E0
3,235381980E-1	1,459621787E-1	9,159725189E0	-2,512463629E-1	9,164332776E0
3,247342400E-1	1,316052526E-1	9,169296265E0	-2,560320199E-1	9,173814165E0
3,259302810E-1	1,196411327E-1	9,171689034E0	-2,536391914E-1	9,175975510E0
3,271263230E-1	1,004985496E-1	9,176474571E0	-2,392822653E-1	9,180143872E0
3,283223650E-1	8,614161611E-2	9,186046600E0	-2,081755698E-1	9,188808932E0
3,295183540E-1	7,657032460E-2	9,190832138E0	-1,866401732E-1	9,193045902E0
3,307143960E-1	4,546362907E-2	9,193224907E0	-1,651047617E-1	9,194819776E0
3,319104380E-1	9,571290575E-3	9,200403214E0	-1,387837082E-1	9,201454875E0
3,331064790E-1	-2,153540403E-2	9,205188751E0	-1,100698411E-1	9,205871990E0
3,343025210E-1	-4,546362907E-2	9,212367058E0	-7,896314561E-2	9,212817643E0
3,354985630E-1	-6,460621208E-2	9,231510162E0	-3,589234129E-2	9,231806004E0
3,366945520E-1	-7,417750359E-2	9,241081238E0	2,392822644E-3	9,241379252E0
3,378905940E-1	-8,374879509E-2	9,248259544E0	3,589234129E-2	9,248708381E0
3,390866350E-1	-1,148554832E-1	9,260223389E0	7,896314561E-2	9,261272276E0
3,402826770E-1	-1,435693651E-1	9,267401695E0	1,244267747E-1	9,269348864E0
3,414787190E-1	-1,698904037E-1	9,267401695E0	1,674975902E-1	9,270472069E0
3,426747080E-1	-1,938186288E-1	9,274580956E0	2,177468538E-1	9,279161129E0
3,438707500E-1	-2,057827413E-1	9,284152031E0	2,632105052E-1	9,290161745E0
3,450667920E-1	-2,177468538E-1	9,291330338E0	3,014956415E-1	9,298770497E0
3,462628330E-1	-2,464607358E-1	9,288937569E0	3,326023519E-1	9,298157257E0
3,474588750E-1	-2,799602449E-1	9,298508644E0	3,637090325E-1	9,309829483E0
3,486548650E-1	-3,134597540E-1	9,312865257E0	4,091726840E-1	9,327118451E0
3,498509060E-1	-3,445664644E-1	9,320044518E0	4,666004181E-1	9,338076451E0
3,510469480E-1	-3,780659735E-1	9,310472488E0	5,216353536E-1	9,332734609E0
3,522429900E-1	-4,115654826E-1	9,293723106E0	5,910272002E-1	9,321587229E0
3,534390310E-1	-4,426721931E-1	9,279366493E0	6,675975323E-1	9,313876081E0
3,546350210E-1	-4,666004181E-1	9,267401695E0	7,322037220E-1	9,307984337E0
3,558310630E-1	-4,785645306E-1	9,255437851E0	7,872386575E-1	9,301177266E0
3,570271040E-1	-4,857429862E-1	9,231510162E0	8,374879360E-1	9,282139418E0
3,582231460E-1	-4,881358147E-1	9,193224907E0	8,901300430E-1	9,249107646E0
3,594191880E-1	-4,881358147E-1	9,159725189E0	9,332008362E-1	9,220070819E0
3,606152290E-1	-4,857429862E-1	9,131011009E0	9,667003751E-1	9,194879984E0
3,618112190E-1	-4,857429862E-1	9,092725754E0	1,004985452E0	9,160982679E0
3,630072600E-1	-4,905286431E-1	9,054440498E0	1,043270707E0	9,127536626E0
3,642033020E-1	-4,977070987E-1	9,023334503E0	1,071984529E0	9,100408164E0
3,653993440E-1	-4,953143001E-1	8,994620323E0	1,100698471E0	9,075244798E0
3,665953850E-1	-4,881358147E-1	8,958727837E0	1,127019525E0	9,042524760E0
3,677913750E-1	-4,833501875E-1	8,920442581E0	1,153340459E0	9,007669924E0
3,689874170E-1	-4,881358147E-1	8,877371788E0	1,177268744E0	8,968387153E0
3,701834580E-1	-4,881358147E-1	8,841479301E0	1,186840057E0	8,934126825E0
3,713795000E-1	-4,785645306E-1	8,805587769E0	1,201196909E0	8,900015392E0
3,725755420E-1	-4,689932466E-1	8,774480820E0	1,215553880E0	8,870684278E0
3,737715830E-1	-4,546363056E-1	8,750552177E0	1,217946768E0	8,846595498E0
3,749675730E-1	-4,354937077E-1	8,726624489E0	1,215553880E0	8,821632557E0
3,761636150E-1	-4,211367965E-1	8,695517540E0	1,205982566E0	8,788843806E0
3,773596560E-1	-4,163511395E-1	8,654839516E0	1,201196909E0	8,747712234E0
3,785556980E-1	-4,115654826E-1	8,628518105E0	1,201196909E0	8,721443965E0
3,797517400E-1	-3,996013701E-1	8,611768723E0	1,196411371E0	8,703656815E0
3,809477810E-1	-3,804588020E-1	8,585447311E0	1,189232826E0	8,675766776E0
3,821437710E-1	-3,637090325E-1	8,556734085E0	1,177268744E0	8,644995324E0
3,833398130E-1	-3,613162339E-1	8,530412674E0	1,165304661E0	8,617216764E0
3,845358540E-1	-3,661018610E-1	8,511270523E0	1,143769264E0	8,595578202E0
3,857318960E-1	-3,684946895E-1	8,484949112E0	1,115055323E0	8,565833184E0
3,869279380E-1	-3,661018610E-1	8,451449394E0	1,083948612E0	8,528538681E0
3,881239270E-1	-3,589234054E-1	8,432307243E0	1,050449133E0	8,505061719E0
3,893199690E-1	-3,469592929E-1	8,422736168E0	1,016949654E0	8,490998287E0
3,905160100E-1	-3,469592929E-1	8,417949677E0	9,858429432E-1	8,482578842E0
3,917120520E-1	-3,517449200E-1	8,408378601E0	9,571290612E-1	8,469985314E0
3,929080940E-1	-3,613162339E-1	8,394021988E0	9,355936646E-1	8,453726401E0
3,941040830E-1	-3,684946895E-1	8,401200294E0	9,164510965E-1	8,459068349E0
3,953001250E-1	-3,661018610E-1	8,422736168E0	8,877372146E-1	8,477298655E0
3,964961670E-1	-3,708875179E-1	8,441878319E0	8,518448472E-1	8,492850331E0
3,976922080E-1	-3,900300860E-1	8,456234932E0	8,255237937E-1	8,505381957E0
3,988882500E-1	-4,187439680E-1	8,472985268E0	7,896314859E-1	8,519996698E0
4,000842920E-1	-4,402793646E-1	8,494520187E0	7,513462901E-1	8,539042123E0
4,012802810E-1	-4,618147612E-1	8,530412674E0	7,226324677E-1	8,573413028E0
4,024763230E-1	-4,905286431E-1	8,580661774E0	6,963114142E-1	8,622831577E0
4,036723650E-1	-5,144568682E-1	8,616554260E0	6,628118753E-1	8,657308633E0
4,048684060E-1	-5,264210105E-1	8,647661209E0	6,293123364E-1	8,686495121E0
4,060644480E-1	-5,479564071E-1	8,681160927E0	5,958128572E-1	8,718818969E0
4,072604380E-1	-5,694918036E-1	8,712266922E0	5,647061467E-1	8,749103318E0
4,084564790E-1	-5,694918036E-1	8,743373871E0	5,312066078E-1	8,777988837E0
4,096525210E-1	-5,503492355E-1	8,772088051E0	5,024927258E-1	8,803687409E0
4,108485630E-1	-5,312066078E-1	8,784051895E0	4,713860750E-1	8,812715415E0
4,120446040E-1	-5,216353536E-1	8,779266357E0	4,426721931E-1	8,805883254E0
4,132405940E-1	-5,072783828E-1	8,764909744E0	4,115654826E-1	8,789218414E0
4,144366350E-1	-4,594219327E-1	8,752944946E0	3,732803464E-1	8,772938616E0
4,156326770E-1	-4,163511395E-1	8,748159409E0	3,326023519E-1	8,764374800E0
4,168287190E-1	-3,876372576E-1	8,726624489E0	2,871387303E-1	8,739947727E0
4,180247600E-1	-3,517449200E-1	8,705088615E0	2,512463629E-1	8,715814192E0
4,192208020E-1	-3,254238665E-1	8,685946465E0	2,105683982E-1	8,694590602E0
4,204167920E-1	-3,014956415E-1	8,664410591E0	1,579262912E-1	8,671092851E0
4,216128330E-1	-2,608176768E-1	8,640482903E0	1,076770201E-1	8,645089068E0
4,228088750E-1	-2,105683982E-1	8,602197647E0	5,264209956E-2	8,604935479E0
4,240049170E-1	-1,507478207E-1	8,559126854E0	-1,196411345E-2	8,560462636E0
4,252009580E-1	-9,092725813E-2	8,523234367E0	-7,657032460E-2	8,524063284E0
4,263969480E-1	-4,067798331E-2	8,482556343E0	-1,339980662E-1	8,483712176E0
4,275929900E-1	9,571290575E-3	8,432307243E0	-1,938186288E-1	8,434539864E0
4,287890310E-1	6,699903309E-2	8,389236450E0	-2,584248483E-1	8,393483216E0
4,299850730E-1	1,172483116E-1	8,338987350E0	-3,206382394E-1	8,345973046E0
4,311811150E-1	1,746760458E-1	8,276773453E0	-3,804588020E-1	8,287354186E0
4,323771560E-1	2,297109663E-1	8,212167740E0	-4,307080805E-1	8,226662480E0
4,335731460E-1	2,775674164E-1	8,147561073E0	-4,785645306E-1	8,166322252E0
4,347691880E-1	3,134597540E-1	8,078168869E0	-5,312066078E-1	8,101681909E0
4,359652290E-1	3,541377485E-1	8,023134232E0	-5,790630579E-1	8,051795481E0
4,371612710E-1	4,139583111E-1	7,984848976E0	-6,197410822E-1	8,019554455E0
4,383573130E-1	4,689932466E-1	7,941778183E0	-6,508477330E-1	7,982192565E0
4,395533020E-1	5,120640397E-1	7,891529083E0	-6,723831892E-1	7,936657987E0
4,407493440E-1	5,359922647E-1	7,855636597E0	-6,915257573E-1	7,904209127E0
4,419453850E-1	5,551348329E-1	7,836493969E0	-6,987041831E-1	7,887141430E0
4,431414270E-1	5,790630579E-1	7,824530125E0	-6,843472719E-1	7,875716912E0
4,443374690E-1	5,862415433E-1	7,819744587E0	-6,675975323E-1	7,870055338E0
4,455335100E-1	5,910272002E-1	7,822137356E0	-6,460621357E-1	7,870993727E0
4,467295000E-1	5,958128572E-1	7,841279984E0	-6,077769399E-1	7,887335263E0
4,479255420E-1	5,886343718E-1	7,874779224E0	-5,527420044E-1	7,916069857E0
4,491215830E-1	5,790630579E-1	7,920242786E0	-4,929214716E-1	7,956665847E0
4,503176250E-1	5,623133183E-1	7,972885132E0	-4,331009090E-1	8,004415656E0
4,515136670E-1	5,431707501E-1	8,030312538E0	-3,684946895E-1	8,057092668E0
4,527096560E-1	5,335994363E-1	8,104490280E0	-3,014956415E-1	8,127631308E0
4,539056980E-1	5,192425251E-1	8,171489716E0	-2,273181528E-1	8,191125107E0
4,551017400E-1	5,000999570E-1	8,243273735E0	-1,579262912E-1	8,259939622E0
4,562977810E-1	4,689932466E-1	8,327022552E0	-1,028913707E-1	8,340854026E0
4,574938230E-1	4,307080805E-1	8,405985832E0	-4,307080805E-2	8,417123164E0
4,586898130E-1	4,043870270E-1	8,482556343E0	2,392822690E-2	8,492223710E0
4,598858540E-1	3,780659735E-1	8,559126854E0	9,332008660E-2	8,567980802E0
4,610818960E-1	3,469592929E-1	8,640482903E0	1,555334777E-1	8,648844790E0
4,622779380E-1	3,158525825E-1	8,709874153E0	1,986042857E-1	8,717861795E0
4,634739790E-1	2,799602449E-1	8,767302513E0	2,297109663E-1	8,774778528E0
4,646700210E-1	2,416750938E-1	8,817551613E0	2,775674164E-1	8,825229004E0
4,658660100E-1	2,153540403E-1	8,870193481E0	3,254238665E-1	8,878773026E0
4,670620520E-1	1,938186288E-1	8,930013657E0	3,613162339E-1	8,939421625E0
4,682580940E-1	1,674975902E-1	8,973084450E0	3,996013701E-1	8,983539461E0
4,694541350E-1	1,387837082E-1	9,001798630E0	4,474578202E-1	9,013981251E0
4,706501770E-1	1,244267747E-1	9,020941734E0	4,929214716E-1	9,035255579E0
4,718462190E-1	1,172483116E-1	9,040083885E0	5,431707501E-1	9,057146255E0
4,730422080E-1	9,810572863E-2	9,061619759E0	5,910272002E-1	9,081403555E0
4,742382500E-1	7,417750359E-2	9,083154678E0	6,221339107E-1	9,104737877E0
4,754342920E-1	5,982056633E-2	9,095118523E0	6,532405615E-1	9,118743481E0
4,766303330E-1	5,024927482E-2	9,107083321E0	6,867401004E-1	9,133077442E0
4,778263750E-1	5,264209956E-2	9,126225471E0	7,202396393E-1	9,154753284E0
4,790223650E-1	6,221338734E-2	9,128618240E0	7,489534616E-1	9,159501775E0
4,802184060E-1	7,417750359E-2	9,128618240E0	7,848458290E-1	9,162595498E0
4,814144480E-1	9,571290761E-2	9,138189316E0	8,231309652E-1	9,175685779E0
4,826104900E-1	1,172483116E-1	9,140582085E0	8,614161611E-1	9,181831289E0
4,838065310E-1	1,387837082E-1	9,126225471E0	9,068797827E-1	9,172223461E0
4,850025210E-1	1,531406492E-1	9,114261627E0	9,475577474E-1	9,164664901E0
4,861985630E-1	1,603191197E-1	9,109476089E0	9,882357717E-1	9,164325768E0
4,873946040E-1	1,794617027E-1	9,109476089E0	1,026520967E0	9,168887960E0
4,885906460E-1	2,033899277E-1	9,099904060E0	1,060020447E0	9,163692745E0
4,897866880E-1	2,177468538E-1	9,090332985E0	1,081555843E0	9,157037213E0
4,909827290E-1	2,201396823E-1	9,078369141E0	1,103091240E0	9,147789789E0
4,921787190E-1	2,201396823E-1	9,064012527E0	1,122233868E0	9,135873983E0
4,933747600E-1	2,297109663E-1	9,059226990E0	1,146162033E0	9,134333483E0
4,945708020E-1	2,440679073E-1	9,056833267E0	1,158126116E0	9,133841146E0
4,957668440E-1	2,608176768E-1	9,042476654E0	1,167697430E0	9,121289776E0
4,969628850E-1	2,751746178E-1	9,040083885E0	1,184447169E0	9,121499483E0
4,981588750E-1	2,943171859E-1	9,035298347E0	1,191625714E0	9,118289899E0
4,993549170E-1	3,086741269E-1	9,032905579E0	1,186840057E0	9,115769426E0
5,005509580E-1	3,086741269E-1	9,042476654E0	1,165304661E0	9,122477663E0
5,017470000E-1	3,110669553E-1	9,035298347E0	1,143769264E0	9,112715677E0
5,029430420E-1	3,230310678E-1	9,016156197E0	1,134197950E0	9,092954780E0
5,041390310E-1	3,349951804E-1	9,016156197E0	1,110269666E0	9,090434152E0
5,053350730E-1	3,469592929E-1	9,023334503E0	1,074377418E0	9,093691942E0
5,065311150E-1	3,613162339E-1	9,023334503E0	1,048056364E0	9,091179083E0
5,077271560E-1	3,828516304E-1	9,032905579E0	1,021735311E0	9,098565909E0
5,089231980E-1	3,996013701E-1	9,040083885E0	1,002592683E0	9,104284156E0
5,101192400E-1	4,115654826E-1	9,035298347E0	9,858429432E-1	9,098235471E0
5,113152290E-1	4,331009090E-1	9,035298347E0	9,595218897E-1	9,096420993E0
5,125112710E-1	4,546363056E-1	9,042476654E0	9,260223508E-1	9,101131556E0
5,137073130E-1	4,713860750E-1	9,047262192E0	8,973084688E-1	9,103862943E0
5,149033540E-1	4,857429862E-1	9,064012527E0	8,757730722E-1	9,119169251E0
5,160993960E-1	4,953143001E-1	9,085547447E0	8,566305041E-1	9,139273740E0
5,172953850E-1	5,024927258E-1	9,099904060E0	8,327022791E-1	9,151729123E0
5,184914270E-1	5,096712112E-1	9,109476089E0	8,111668825E-1	9,159711299E0
5,196874690E-1	5,216353536E-1	9,123832703E0	7,920243144E-1	9,172989106E0
5,208835100E-1	5,383850932E-1	9,138189316E0	7,776673436E-1	9,187008707E0
5,220795520E-1	5,551348329E-1	9,142974854E0	7,633104324E-1	9,191561710E0
5,232755940E-1	5,766702294E-1	9,150154114E0	7,441678643E-1	9,198459364E0
5,244715830E-1	5,910272002E-1	9,169296265E0	7,274180651E-1	9,217073515E0
5,256676250E-1	6,101697683E-1	9,190832138E0	7,058826685E-1	9,238071924E0
5,268636670E-1	6,293123364E-1	9,219545364E0	6,747759581E-1	9,265601618E0
5,280597080E-1	6,412764788E-1	9,245866776E0	6,436693072E-1	9,290403550E0
5,292557500E-1	6,436693072E-1	9,265008926E0	6,149554253E-1	9,307678054E0
5,304517400E-1	6,436693072E-1	9,279366493E0	5,910272002E-1	9,320421978E0
5,316477810E-1	6,580262184E-1	9,296115875E0	5,718846321E-1	9,336906388E0
5,328438230E-1	6,771687865E-1	9,310472488E0	5,527420044E-1	9,351415895E0
5,340398650E-1	6,939185858E-1	9,324830055E0	5,312066078E-1	9,365690526E0
5,352359060E-1	7,034898400E-1	9,343972206E0	5,072783828E-1	9,384137995E0
5,364319480E-1	7,106683254E-1	9,370293617E0	4,905286431E-1	9,409998421E0
5,376279380E-1	7,322037220E-1	9,391828537E0	4,713860750E-1	9,432113782E0
5,388239790E-1	7,609176040E-1	9,396614075E0	4,522434771E-1	9,438213593E0
5,400200210E-1	7,800601721E-1	9,396614075E0	4,378865361E-1	9,439099245E0
5,412160630E-1	8,039883971E-1	9,403793335E0	4,259224236E-1	9,447705348E0
5,424121040E-1	8,470591903E-1	9,425328255E0	4,091726840E-1	9,472156263E0
5,436080940E-1	8,949156404E-1	9,437292099E0	3,804588020E-1	9,487260145E0
5,448041350E-1	9,308080077E-1	9,437292099E0	3,421736360E-1	9,489255424E0
5,460001770E-1	9,571290612E-1	9,442078590E0	3,086741269E-1	9,495484393E0
5,471962190E-1	9,906286001E-1	9,451649666E0	2,775674164E-1	9,507474433E0
5,483922600E-1	1,014556766E0	9,461220741E0	2,392822653E-1	9,518470431E0
5,495883020E-1	1,019342422E0	9,480362892E0	1,914258152E-1	9,536927355E0
5,507842920E-1	1,038485050E0	9,494720459E0	1,459621787E-1	9,552458990E0
5,519803330E-1	1,052842021E0	9,509077072E0	1,052841991E-1	9,567763994E0
5,531763750E-1	1,050449133E0	9,533005714E0	6,221338734E-2	9,590907769E0
5,543724170E-1	1,057627559E0	9,568898201E0	3,349951655E-2	9,627227589E0
5,555684580E-1	1,057627559E0	9,616754532E0	7,178467698E-3	9,674740064E0
5,567644480E-1	1,050449133E0	9,659825325E0	-1,914258115E-2	9,716791401E0
5,579604900E-1	1,040877819E0	9,702896118E0	-3,349951655E-2	9,758623977E0
5,591565310E-1	1,028913736E0	9,757930756E0	-3,828516230E-2	9,812101807E0
5,603525730E-1	1,024128079E0	9,801001549E0	-3,589234129E-2	9,854428342E0
5,615486150E-1	1,019342422E0	9,844072342E0	-2,871387079E-2	9,896749150E0
5,627446560E-1	1,002592683E0	9,899106979E0	-1,435693540E-2	9,949759655E0
5,639406460E-1	9,906286001E-1	9,946963310E0	-2,392822644E-3	9,996170759E0
5,651366880E-1	9,690931439E-1	9,992427826E0	1,435693540E-2	1,003932077E1
5,663327290E-1	9,451649189E-1	1,004028416E1	4,546362907E-2	1,008477613E1
5,675287710E-1	9,332008362E-1	1,008096218E1	8,614161611E-2	1,012442999E1
5,687248130E-1	9,260223508E-1	1,011924744E1	1,268195957E-1	1,016232106E1
5,699208020E-1	9,116654396E-1	1,014556789E1	1,746760458E-1	1,018794354E1
5,711168440E-1	8,973084688E-1	1,018385315E1	2,153540403E-1	1,022557601E1
5,723128850E-1	8,877372146E-1	1,023649502E1	2,560320199E-1	1,027810586E1
5,735089270E-1	8,733802438E-1	1,026999474E1	3,086741269E-1	1,031168583E1
5,747049690E-1	8,542376757E-1	1,028913784E1	3,565305769E-1	1,033069182E1
5,759009580E-1	8,279166222E-1	1,030110168E1	3,948157430E-1	1,034185773E1
5,770970000E-1	8,015955687E-1	1,031306553E1	4,354937077E-1	1,035333429E1
5,782930420E-1	7,752745152E-1	1,034895802E1	4,713860750E-1	1,038865667E1
5,794890830E-1	7,489534616E-1	1,038485050E1	4,953143001E-1	1,042359763E1
5,806851250E-1	7,250252366E-1	1,041595650E1	5,264210105E-1	1,045442157E1
5,818811670E-1	7,082754970E-1	1,044227791E1	5,479564071E-1	1,048060486E1
5,830771560E-1	6,939185858E-1	1,045663452E1	5,623133183E-1	1,049470937E1
5,842731980E-1	6,723831892E-1	1,045902824E1	5,862415433E-1	1,049700196E1
5,854692400E-1	6,460621357E-1	1,047817039E1	6,149554253E-1	1,051606491E1
5,866652810E-1	6,221339107E-1	1,051645565E1	6,340979934E-1	1,055390782E1
5,878613230E-1	5,934200287E-1	1,055713367E1	6,508477330E-1	1,059381053E1
5,890573130E-1	5,479564071E-1	1,059302616E1	6,580262184E-1	1,062758006E1
5,902533540E-1	5,024927258E-1	1,063370419E1	6,723831892E-1	1,066678315E1
5,914493960E-1	4,594219327E-1	1,066959572E1	6,915257573E-1	1,070184793E1
5,926454380E-1	4,163511395E-1	1,071984577E1	7,010970116E-1	1,075081293E1
5,938414790E-1	3,732803464E-1	1,077727318E1	7,154539824E-1	1,080744326E1
5,950374690E-1	3,349951804E-1	1,082273674E1	7,393822074E-1	1,085313496E1
5,962335100E-1	3,038884699E-1	1,086820030E1	7,680960894E-1	1,089954575E1
5,974295520E-1	2,656033039E-1	1,091127110E1	7,992027402E-1	1,094372455E1
5,986255940E-1	2,321037948E-1	1,095912743E1	8,087740541E-1	1,099138124E1
5,998216350E-1	2,273181528E-1	1,099262714E1	8,087740541E-1	1,102468324E1
6,010176250E-1	2,105683982E-1	1,101655579E1	8,135597110E-1	1,104856189E1
6,022136670E-1	1,722832322E-1	1,104766178E1	8,231309652E-1	1,107962350E1
6,034097080E-1	1,459621787E-1	1,107637596E1	8,446664214E-1	1,110949462E1
6,046057500E-1	1,268195957E-1	1,108833981E1	8,662018180E-1	1,112284444E1
6,058017920E-1	1,148554832E-1	1,110030460E1	8,733802438E-1	1,113520306E1
6,069978330E-1	1,076770201E-1	1,111705399E1	8,733802438E-1	1,115182840E1
6,081938230E-1	9,332008660E-2	1,113858986E1	8,781659007E-1	1,117354322E1
6,093898650E-1	6,699903309E-2	1,117687416E1	8,829515576E-1	1,121189584E1
6,105859060E-1	3,589234129E-2	1,121515942E1	8,901300430E-1	1,125048534E1
6,117819480E-1	1,674975827E-2	1,124626637E1	8,949156404E-1	1,128182883E1
6,129779900E-1	-4,785645287E-3	1,127976608E1	8,829515576E-1	1,131427193E1
6,141740310E-1	-3,589234129E-2	1,132522964E1	8,757730722E-1	1,135909738E1
6,153700210E-1	-6,699903309E-2	1,137308598E1	8,805587292E-1	1,140732033E1
6,165660630E-1	-8,614161611E-2	1,142333508E1	8,757730722E-1	1,145718042E1
6,177621040E-1	-9,571290761E-2	1,147119141E1	8,614161611E-1	1,150388765E1
6,189581460E-1	-1,100698411E-1	1,149751282E1	8,494520187E-1	1,152937488E1
6,201541880E-1	-1,292124242E-1	1,153819084E1	8,350951076E-1	1,156909364E1
6,213501770E-1	-1,387837082E-1	1,159561825E1	8,255237937E-1	1,162579516E1
6,225462190E-1	-1,435693651E-1	1,164586735E1	8,207381964E-1	1,167563487E1
6,237422600E-1	-1,459621787E-1	1,168893814E1	8,183453679E-1	1,171845847E1
6,249383020E-1	-1,483550072E-1	1,172722340E1	8,135597110E-1	1,175634540E1
6,261343440E-1	-1,531406492E-1	1,176550865E1	8,111668825E-1	1,179443248E1
6,273303330E-1	-1,531406492E-1	1,181097221E1	8,015955687E-1	1,183913308E1
6,285263750E-1	-1,555334777E-1	1,184925747E1	7,848458290E-1	1,187623999E1
6,297224170E-1	-1,483550072E-1	1,187557888E1	7,800601721E-1	1,190209548E1
6,309184580E-1	-1,339980662E-1	1,189472103E1	7,848458290E-1	1,192133914E1
6,321145000E-1	-1,220339537E-1	1,190907860E1	7,944171429E-1	1,193616957E1
6,333105420E-1	-9,810572863E-2	1,192582798E1	8,063812256E-1	1,195346178E1
6,345065310E-1	-6,460621208E-2	1,193300629E1	8,159525394E-1	1,196104475E1
6,357025730E-1	-3,110669367E-2	1,193061352E1	8,255237937E-1	1,195918041E1
6,368986150E-1	1,196411345E-2	1,193539906E1	8,422735929E-1	1,196508749E1
6,380946560E-1	6,460621208E-2	1,194736385E1	8,638089895E-1	1,197872460E1
6,392906980E-1	1,148554832E-1	1,194975662E1	8,805587292E-1	1,198270666E1
6,404866880E-1	1,651047617E-1	1,196889877E1	8,901300430E-1	1,200308831E1
6,416827290E-1	2,177468538E-1	1,199282742E1	9,092726111E-1	1,202921859E1
6,428787710E-1	2,847459018E-1	1,201436234E1	9,212366939E-1	1,205299380E1
6,440748130E-1	3,589234054E-1	1,205025482E1	9,284151793E-1	1,209129530E1
6,452708540E-1	4,331009090E-1	1,208375454E1	9,379864931E-1	1,212784065E1
6,464668440E-1	4,929214716E-1	1,212921810E1	9,475577474E-1	1,217615576E1
6,476628850E-1	5,431707501E-1	1,219143105E1	9,523434043E-1	1,224062839E1
6,488589270E-1	5,982056856E-1	1,225843048E1	9,475577474E-1	1,230954238E1
6,500549690E-1	6,436693072E-1	1,232303619E1	9,332008362E-1	1,237507152E1
6,512510100E-1	6,699903607E-1	1,237567902E1	9,020941257E-1	1,242658811E1
6,524470520E-1	6,819544435E-1	1,243071365E1	8,662018180E-1	1,247950357E1
6,536430420E-1	6,699903607E-1	1,248574829E1	8,207381964E-1	1,253061885E1
6,548390830E-1	6,388836503E-1	1,252403355E1	7,585247755E-1	1,256323798E1
6,560351250E-1	6,077769399E-1	1,255514050E1	6,963114142E-1	1,258911416E1
6,572311670E-1	5,670989752E-1	1,258385468E1	6,317051649E-1	1,261245619E1
6,584272080E-1	5,048855543E-1	1,258624744E1	5,551348329E-1	1,260859662E1
6,596231980E-1	4,259224236E-1	1,258146191E1	4,618147612E-1	1,259713723E1
6,608192400E-1	3,373879790E-1	1,257906818E1	3,565305769E-1	1,258864175E1
6,620152810E-1	2,416750938E-1	1,255514050E1	2,679961324E-1	1,256032570E1
6,632113230E-1	1,507478207E-1	1,251206970E1	1,938186288E-1	1,251447877E1
6,644073650E-1	5,742774159E-2	1,246182060E1	1,148554832E-1	1,246248219E1
6,656033540E-1	-4,067798331E-2	1,241157150E1	3,589234129E-2	1,241169006E1
6,667993960E-1	-1,363908947E-1	1,236371422E1	-4,067798331E-2	1,236453341E1
6,679954380E-1	-2,297109663E-1	1,230867958E1	-1,220339537E-1	1,231142772E1
6,691914790E-1	-3,134597540E-1	1,225364494E1	-2,057827413E-1	1,225938081E1
6,703875210E-1	-4,115654826E-1	1,219861031E1	-2,847459018E-1	1,220887217E1
6,715835630E-1	-5,192425251E-1	1,214118195E1	-3,373879790E-1	1,215696272E1
6,727795520E-1	-6,221339107E-1	1,209093285E1	-3,780659735E-1	1,211282963E1
6,739755940E-1	-7,154539824E-1	1,203589821E1	-4,163511395E-1	1,206433041E1
6,751716350E-1	-7,968099117E-1	1,197846985E1	-4,474578202E-1	1,201327867E1
6,763676770E-1	-8,829515576E-1	1,193539906E1	-4,713860750E-1	1,197729347E1
6,775637190E-1	-9,667003751E-1	1,188993549E1	-4,881358147E-1	1,193915207E1
6,787597080E-1	-1,036092162E0	1,183729362E1	-5,024927258E-1	1,189317057E1
6,799557500E-1	-1,100698471E0	1,179422283E1	-5,168496966E-1	1,185674335E1
6,811517920E-1	-1,158126116E0	1,175833035E1	-5,359922647E-1	1,182737825E1
6,823478330E-1	-1,225125194E0	1,171765232E1	-5,479564071E-1	1,179425979E1
6,835438750E-1	-1,287338614E0	1,167458153E1	-5,694918036E-1	1,175914178E1
6,847398650E-1	-1,332802176E0	1,164108181E1	-6,005984545E-1	1,173251319E1
6,859359060E-1	-1,356730461E0	1,161236858E1	-6,221339107E-1	1,170789786E1
6,871319480E-1	-1,373480201E0	1,159322548E1	-6,460621357E-1	1,169216495E1
6,883279900E-1	-1,378265858E0	1,158365440E1	-6,699903607E-1	1,168458614E1
6,895240310E-1	-1,359123230E0	1,156929779E1	-6,795616150E-1	1,166866193E1
6,907200210E-1	-1,323230863E0	1,155733299E1	-6,723831892E-1	1,165225236E1
6,919160630E-1	-1,272981644E0	1,155972576E1	-6,628118753E-1	1,164847894E1
6,931121040E-1	-1,225125194E0	1,157169056E1	-6,604190469E-1	1,165508934E1
6,943081460E-1	-1,177268744E0	1,158365440E1	-6,460621357E-1	1,166123524E1
6,955041880E-1	-1,119840980E0	1,158843994E1	-6,197410822E-1	1,165890488E1
6,967002290E-1	-1,067198873E0	1,159322548E1	-5,982056856E-1	1,165760012E1
6,978962190E-1	-1,012163997E0	1,159322548E1	-5,718846321E-1	1,165136923E1
6,990922600E-1	-9,571290612E-1	1,159083271E1	-5,431707501E-1	1,164296068E1
7,002883020E-1	-9,068797827E-1	1,158843994E1	-5,120640397E-1	1,163514421E1
7,014843440E-1	-8,638089895E-1	1,157647610E1	-4,689932466E-1	1,161812891E1
7,026803850E-1	-8,207381964E-1	1,155972576E1	-4,163511395E-1	1,159630196E1
7,038763750E-1	-7,752745152E-1	1,152622700E1	-3,613162339E-1	1,155791974E1
7,050724170E-1	-7,417750359E-1	1,147119141E1	-2,919243574E-1	1,149885570E1
7,062684580E-1	-7,130611539E-1	1,141376400E1	-2,177468538E-1	1,143808894E1
7,074645000E-1	-6,675975323E-1	1,135872936E1	-1,316052526E-1	1,137909219E1
7,086605420E-1	-6,436693072E-1	1,130608654E1	-3,828516230E-2	1,132445887E1
7,098565830E-1	-6,412764788E-1	1,126062298E1	5,742774159E-2	1,127901429E1
7,110525730E-1	-6,245267391E-1	1,121276665E1	1,627119333E-1	1,123132426E1
7,122486150E-1	-6,077769399E-1	1,116012478E1	2,679961324E-1	1,117987477E1
7,134446560E-1	-5,886343718E-1	1,111226845E1	3,828516304E-1	1,113443200E1
7,146406980E-1	-5,742774606E-1	1,106680489E1	5,000999570E-1	1,109297367E1
7,158367400E-1	-5,623133183E-1	1,101894855E1	6,173482537E-1	1,105054489E1
7,170327290E-1	-5,479564071E-1	1,097587776E1	7,465606928E-1	1,101487638E1
7,182287710E-1	-5,455635786E-1	1,093280697E1	8,709874153E-1	1,098100755E1
7,194248130E-1	-5,455635786E-1	1,089452171E1	9,882357717E-1	1,095284680E1
7,206208540E-1	-5,407779217E-1	1,086580753E1	1,110269666E0	1,093576302E1
7,218168960E-1	-5,264210105E-1	1,083709335E1	1,215553880E0	1,091775081E1
7,230128850E-1	-5,168496966E-1	1,082034397E1	1,308874011E0	1,091146775E1
7,242089270E-1	-5,048855543E-1	1,080359459E1	1,406979680E0	1,090651903E1
7,254049690E-1	-4,905286431E-1	1,077727318E1	1,505085468E0	1,089291135E1
7,266010100E-1	-4,689932466E-1	1,076052380E1	1,596012712E0	1,088834623E1
7,277970520E-1	-4,642075896E-1	1,074855900E1	1,677368641E0	1,088855246E1
7,289930940E-1	-4,642075896E-1	1,073420238E1	1,749153376E0	1,088568450E1
7,301890830E-1	-4,498506486E-1	1,071506023E1	1,823330879E0	1,087839220E1
7,313851250E-1	-4,474578202E-1	1,068634605E1	1,902294040E0	1,086355987E1
7,325811670E-1	-4,450650215E-1	1,065523911E1	1,966900229E0	1,084439486E1
7,337772080E-1	-4,354937077E-1	1,063370419E1	2,014756680E0	1,083164641E1
7,349732500E-1	-4,354937077E-1	1,061216831E1	2,067398787E0	1,082043940E1
7,361692400E-1	-4,331009090E-1	1,057627583E1	2,115255117E0	1,079441944E1
7,373652810E-1	-4,283152521E-1	1,054516983E1	2,139183521E0	1,076848025E1
7,385613230E-1	-4,331009090E-1	1,051884842E1	2,160718918E0	1,074720683E1
7,397573650E-1	-4,498506486E-1	1,049731255E1	2,182254314E0	1,073117748E1
7,409534060E-1	-4,785645306E-1	1,047817039E1	2,194218397E0	1,071614078E1
7,421493960E-1	-4,929214716E-1	1,045184898E1	2,201396942E0	1,069253325E1
7,433454380E-1	-5,000999570E-1	1,042552853E1	2,201396942E0	1,066714083E1
7,445414790E-1	-5,000999570E-1	1,040877819E1	2,194218397E0	1,064928907E1
7,457375210E-1	-4,905286431E-1	1,037527943E1	2,187039852E0	1,061462128E1
7,469335630E-1	-4,761717021E-1	1,033220863E1	2,160718918E0	1,056645546E1
7,481296040E-1	-4,713860750E-1	1,030588722E1	2,117648125E0	1,053175911E1
7,493255940E-1	-4,618147612E-1	1,028435135E1	2,074577332E0	1,050166780E1
7,505216350E-1	-4,402793646E-1	1,026042366E1	2,029113531E0	1,046840204E1
7,517176770E-1	-4,283152521E-1	1,023649502E1	1,974078655E0	1,043390007E1
7,529137190E-1	-4,235295951E-1	1,021496010E1	1,914258122E0	1,040140237E1
7,541097600E-1	-4,115654826E-1	1,019820976E1	1,849651933E0	1,037275666E1
7,553057500E-1	-3,948157430E-1	1,018863869E1	1,787438512E0	1,035177155E1
7,565017920E-1	-3,900300860E-1	1,017906761E1	1,725225091E0	1,033159922E1
7,576978330E-1	-3,996013701E-1	1,016710377E1	1,665404558E0	1,031034687E1
7,588938750E-1	-3,948157430E-1	1,015513897E1	1,605584025E0	1,028885936E1
7,600899170E-1	-3,756731451E-1	1,013838959E1	1,531406522E0	1,026027678E1
7,612859060E-1	-3,517449200E-1	1,013360405E1	1,445264935E0	1,024218952E1
7,624819480E-1	-3,373879790E-1	1,012403297E1	1,373480201E0	1,022234426E1
7,636779900E-1	-3,302095234E-1	1,010728264E1	1,308874011E0	1,019702662E1
7,648740310E-1	-3,134597540E-1	1,010010433E1	1,239482164E0	1,018070138E1
7,660700730E-1	-2,967100143E-1	1,009053326E1	1,182054400E0	1,016386496E1
7,672660630E-1	-2,799602449E-1	1,007378292E1	1,148554921E0	1,014291174E1
7,684621040E-1	-2,536391914E-1	1,006899738E1	1,122233868E0	1,013451775E1
7,696581460E-1	-2,273181528E-1	1,006660461E1	1,088734269E0	1,012785981E1
7,708541880E-1	-1,962114573E-1	1,006181908E1	1,048056364E0	1,011815814E1
7,720502290E-1	-1,674975902E-1	1,006660461E1	9,978070259E-1	1,011732192E1
7,732462190E-1	-1,411765367E-1	1,006899738E1	9,547362328E-1	1,011514510E1
7,744422600E-1	-1,172483116E-1	1,007617569E1	9,212366939E-1	1,011888041E1
7,756383020E-1	-8,135596663E-2	1,008335495E1	8,853443861E-1	1,012247502E1
7,768343440E-1	-3,110669367E-2	1,008574772E1	8,518448472E-1	1,012170511E1
7,780303850E-1	9,571290575E-3	1,010010433E1	8,159525394E-1	1,013301424E1
7,792264270E-1	4,067798331E-2	1,012642574E1	7,800601721E-1	1,015650761E1
7,804224170E-1	7,896314561E-2	1,014078236E1	7,513462901E-1	1,016888505E1
7,816184580E-1	1,244267747E-1	1,015035343E1	7,274180651E-1	1,017714566E1
7,828145000E-1	1,627119333E-1	1,016231823E1	7,106683254E-1	1,018843641E1
7,840105420E-1	2,033899277E-1	1,016471100E1	6,819544435E-1	1,018959170E1
7,852065830E-1	2,392822653E-1	1,016231823E1	6,388836503E-1	1,018519220E1
7,864025730E-1	2,703889608E-1	1,015035343E1	6,053841114E-1	1,017198481E1
7,875986150E-1	3,014956415E-1	1,012881851E1	5,694918036E-1	1,014929480E1
7,887946560E-1	3,373879790E-1	1,010010433E1	5,240281820E-1	1,011931538E1
7,899906980E-1	3,756731451E-1	1,009292603E1	4,905286431E-1	1,011182003E1
7,911867400E-1	4,019941986E-1	1,008814049E1	4,594219327E-1	1,010659420E1
7,923827810E-1	4,115654826E-1	1,006660461E1	4,187439680E-1	1,008371267E1
7,935787710E-1	4,235295951E-1	1,004267693E1	3,732803464E-1	1,005853247E1
7,947748130E-1	4,331009090E-1	1,001396275E1	3,230310678E-1	1,002852807E1
7,959708540E-1	4,498506486E-1	9,985248566E0	2,775674164E-1	9,999229880E0
7,971668960E-1	4,689932466E-1	9,951749802E0	2,297109663E-1	9,965442585E0
7,983629380E-1	4,642075896E-1	9,925428391E0	1,770688742E-1	9,937855443E0
7,995589270E-1	4,546363056E-1	9,906285286E0	1,268195957E-1	9,917523156E0
8,007549690E-1	4,594219327E-1	9,877572060E0	8,374879509E-2	9,888605168E0
8,019510100E-1	4,785645306E-1	9,851250648E0	4,546362907E-2	9,862972690E0
8,031470520E-1	5,048855543E-1	9,817750931E0	2,392822644E-3	9,830724718E0
8,043430940E-1	5,120640397E-1	9,779465675E0	-4,067798331E-2	9,792947114E0
8,055390830E-1	5,096712112E-1	9,731609344E0	-8,135596663E-2	9,745286244E0
8,067351250E-1	5,240281820E-1	9,688538551E0	-1,268195957E-1	9,703528637E0
8,079311670E-1	5,431707501E-1	9,657432556E0	-1,722832322E-1	9,674229662E0
8,091272080E-1	5,479564071E-1	9,631111145E0	-2,105683982E-1	9,648984255E0
8,103232500E-1	5,527420044E-1	9,609575272E0	-2,344966233E-1	9,628314977E0
8,115192920E-1	5,575276613E-1	9,590433121E0	-2,464607358E-1	9,609786024E0
8,127152810E-1	5,503492355E-1	9,576076508E0	-2,560320199E-1	9,595294574E0
8,139113230E-1	5,359922647E-1	9,556933403E0	-2,703889608E-1	9,575770150E0
8,151073650E-1	5,168496966E-1	9,544969559E0	-2,919243574E-1	9,563409294E0
8,163034060E-1	4,905286431E-1	9,530612946E0	-3,014956415E-1	9,547989374E0
8,174994480E-1	4,594219327E-1	9,521040916E0	-3,038884699E-1	9,536961615E0
8,186954380E-1	4,307080805E-1	9,523433685E0	-2,943171859E-1	9,537710481E0
8,198914790E-1	4,211367965E-1	9,528220177E0	-2,751746178E-1	9,541491341E0
8,210875210E-1	4,019941986E-1	9,533005714E0	-2,440679073E-1	9,544598809E0
8,222835630E-1	3,565305769E-1	9,537791252E0	-2,105683982E-1	9,546775114E0
8,234796040E-1	3,158525825E-1	9,542576790E0	-1,698904037E-1	9,549313975E0
8,246755940E-1	2,871387303E-1	9,530612946E0	-1,316052526E-1	9,535845621E0
8,258716350E-1	2,416750938E-1	9,518648148E0	-9,810572863E-2	9,522221072E0
8,270676770E-1	1,914258152E-1	9,518648148E0	-4,307080805E-2	9,520670223E0
8,282637190E-1	1,507478207E-1	9,516255379E0	2,392822690E-2	9,517479388E0
8,294597600E-1	1,292124242E-1	9,513862610E0	1,004985496E-1	9,515270756E0
8,306558020E-1	1,220339537E-1	9,509077072E0	1,770688742E-1	9,511508421E0
8,318517920E-1	8,614161611E-2	9,511469841E0	2,488535494E-1	9,515114661E0
8,330478330E-1	3,828516230E-2	9,501898766E0	3,254238665E-1	9,507546823E0
8,342438750E-1	9,571290575E-3	9,482755661E0	4,019941986E-1	9,491277357E0
8,354399170E-1	-1,674975827E-2	9,468399048E0	4,761717021E-1	9,480379769E0
8,366359580E-1	-4,785645381E-2	9,449256897E0	5,575276613E-1	9,465811283E0
8,378319480E-1	-7,657032460E-2	9,434899330E0	6,340979934E-1	9,456493465E0
8,390279900E-1	-1,028913707E-1	9,422935486E0	7,058826685E-1	9,449897891E0
8,402240310E-1	-1,316052526E-1	9,403793335E0	7,848458290E-1	9,437406000E0
8,414200730E-1	-1,507478207E-1	9,384650230E0	8,494520187E-1	9,424221643E0
8,426161150E-1	-1,746760458E-1	9,363115311E0	9,044869542E-1	9,408322735E0
8,438121040E-1	-2,009970993E-1	9,348757744E0	9,762716293E-1	9,401743321E0
8,450081460E-1	-2,249253243E-1	9,332008362E0	1,036092162E0	9,392042293E0
8,462041880E-1	-2,368894368E-1	9,310472488E0	1,081555843E0	9,376074744E0
8,474002290E-1	-2,368894368E-1	9,286544800E0	1,124626637E0	9,357393654E0
8,485962710E-1	-2,392822653E-1	9,269794464E0	1,167697430E0	9,346114845E0
8,497922600E-1	-2,440679073E-1	9,236295700E0	1,205982566E0	9,317892538E0
8,509883020E-1	-2,488535494E-1	9,188439369E0	1,229910851E0	9,273727774E0
8,521843440E-1	-2,512463629E-1	9,150154114E0	1,239482164E0	9,237140308E0
8,533803850E-1	-2,560320199E-1	9,123832703E0	1,241874933E0	9,211521532E0
8,545764270E-1	-2,488535494E-1	9,090332985E0	1,251446247E0	9,179444404E0
8,557724170E-1	-2,368894368E-1	9,049654961E0	1,253839016E0	9,139173036E0
8,569684580E-1	-2,321037948E-1	9,016156197E0	1,251446247E0	9,105551188E0
8,581645000E-1	-2,344966233E-1	8,982656479E0	1,246660590E0	9,071784208E0
8,593605420E-1	-2,440679073E-1	8,951549530E0	1,241874933E0	9,040578603E0
8,605565830E-1	-2,536391914E-1	8,915657043E0	1,237089276E0	9,004646758E0
8,617526250E-1	-2,536391914E-1	8,882157326E0	1,234696507E0	8,971149707E0
8,629486150E-1	-2,368894368E-1	8,855836868E0	1,227517962E0	8,943643754E0
8,641446560E-1	-2,201396823E-1	8,834300995E0	1,215553880E0	8,920252619E0
8,653406980E-1	-2,201396823E-1	8,815158844E0	1,205982566E0	8,899993308E0
8,665367400E-1	-2,249253243E-1	8,793622971E0	1,191625714E0	8,876844495E0
8,677327810E-1	-2,153540403E-1	8,781659126E0	1,172483087E0	8,862202376E0
8,689287710E-1	-2,033899277E-1	8,781659126E0	1,160519004E0	8,860344735E0
8,701248130E-1	-1,962114573E-1	8,774480820E0	1,146162033E0	8,851197659E0
8,713208540E-1	-1,962114573E-1	8,760123253E0	1,124626637E0	8,834197384E0
8,725168960E-1	-1,818545163E-1	8,755337715E0	1,103091240E0	8,826427355E0
8,737129380E-1	-1,770688742E-1	8,757730484E0	1,081555843E0	8,826038730E0
8,749089270E-1	-1,818545163E-1	8,757730484E0	1,050449133E0	8,822378232E0
8,761049690E-1	-1,818545163E-1	8,757730484E0	1,024128079E0	8,819282999E0
8,773010100E-1	-1,842473447E-1	8,757730484E0	1,002592683E0	8,816857853E0
8,784970520E-1	-1,842473447E-1	8,752944946E0	9,834501147E-1	8,809947017E0
8,796930940E-1	-1,866401732E-1	8,752944946E0	9,667003751E-1	8,808143357E0
8,808891350E-1	-1,890329868E-1	8,764909744E0	9,451649189E-1	8,817749884E0
8,820851250E-1	-1,938186288E-1	8,781659126E0	9,260223508E-1	8,832475308E0
8,832811670E-1	-2,033899277E-1	8,791230202E0	9,116654396E-1	8,840714326E0
8,844772080E-1	-2,129612118E-1	8,796015739E0	9,020941257E-1	8,844717021E0
8,856732500E-1	-2,249253243E-1	8,796015739E0	8,949156404E-1	8,844283933E0
8,868692920E-1	-2,416750938E-1	8,793622971E0	8,901300430E-1	8,841863112E0
8,880652810E-1	-2,464607358E-1	8,805587769E0	8,901300430E-1	8,853894642E0
8,892613230E-1	-2,440679073E-1	8,819944382E0	8,973084688E-1	8,868830280E0
8,904573650E-1	-2,584248483E-1	8,829515457E0	8,997012973E-1	8,878997074E0
8,916534060E-1	-2,703889608E-1	8,834300995E0	8,949156404E-1	8,883628665E0
8,928494480E-1	-2,727817893E-1	8,855836868E0	8,901300430E-1	8,904638569E0
8,940454380E-1	-2,727817893E-1	8,877371788E0	8,805587292E-1	8,925106355E0
8,952414790E-1	-2,775674164E-1	8,863015175E0	8,733802438E-1	8,910267937E0
8,964375210E-1	-2,895315289E-1	8,846264839E0	8,733802438E-1	8,893988035E0
8,976335630E-1	-3,062812984E-1	8,839086533E0	8,662018180E-1	8,886707183E0
8,988296040E-1	-3,134597540E-1	8,834300995E0	8,638089895E-1	8,881964707E0
9,000255940E-1	-3,086741269E-1	8,843872070E0	8,685946465E-1	8,891783262E0
9,012216350E-1	-3,038884699E-1	8,834300995E0	8,614161611E-1	8,881399669E0
9,024176770E-1	-3,038884699E-1	8,817551613E0	8,518448472E-1	8,863814320E0
9,036137190E-1	-3,134597540E-1	8,800801277E0	8,422735929E-1	8,846569106E0
9,048097600E-1	-3,230310678E-1	8,793622971E0	8,350951076E-1	8,839091461E0
9,060058020E-1	-3,158525825E-1	8,788837433E0	8,159525394E-1	8,832281971E0
9,072017920E-1	-3,062812984E-1	8,779266357E0	7,872386575E-1	8,819811263E0
9,083978330E-1	-2,991028428E-1	8,762516975E0	7,585247755E-1	8,800370793E0
9,095938750E-1	-2,847459018E-1	8,740981102E0	7,226324677E-1	8,775421844E0
9,107899170E-1	-2,823530734E-1	8,709874153E0	6,771687865E-1	8,740720141E0
9,119859060E-1	-2,871387303E-1	8,683553696E0	6,293123364E-1	8,711061213E0
9,131819480E-1	-2,751746178E-1	8,662017822E0	5,766702294E-1	8,685552508E0
9,143779900E-1	-2,560320199E-1	8,621339798E0	5,192425251E-1	8,640756050E0
9,155740310E-1	-2,344966233E-1	8,587840080E0	4,618147612E-1	8,603444588E0
9,167700210E-1	-2,105683982E-1	8,547162056E0	4,043870270E-1	8,559313473E0
9,179660100E-1	-1,842473447E-1	8,513663292E0	3,517449200E-1	8,522918175E0
9,191621040E-1	-1,674975902E-1	8,496912956E0	2,991028428E-1	8,503825477E0
9,203581460E-1	-1,531406492E-1	8,470592499E0	2,321037948E-1	8,475155545E0
9,215541880E-1	-1,411765367E-1	8,441878319E0	1,603191197E-1	8,444580664E0
9,227502290E-1	-1,387837082E-1	8,429914474E0	9,810572863E-2	8,431627583E0
9,239462710E-1	-1,268195957E-1	8,413164139E0	4,785645381E-2	8,414256014E0
9,251422600E-1	-1,196411327E-1	8,391629219E0	0,000000000E0	8,392482049E0
9,263383020E-1	-1,316052526E-1	8,379665375E0	-5,503492057E-2	8,380879463E0
9,275343440E-1	-1,483550072E-1	8,365307808E0	-1,100698411E-1	8,367347208E0
9,287303850E-1	-1,603191197E-1	8,346165657E0	-1,627119333E-1	8,349290902E0
9,299264270E-1	-1,794617027E-1	8,336593628E0	-2,177468538E-1	8,341367604E0
9,311224170E-1	-1,938186288E-1	8,338987350E0	-2,703889608E-1	8,345620761E0
9,323184580E-1	-2,033899277E-1	8,338987350E0	-3,158525825E-1	8,347445139E0
9,335145000E-1	-2,129612118E-1	8,348558426E0	-3,589234054E-1	8,358983567E0
9,347105420E-1	-2,297109663E-1	8,360522270E0	-3,948157430E-1	8,372991056E0
9,359065830E-1	-2,560320199E-1	8,367700577E0	-4,211367965E-1	8,382202666E0
9,371026250E-1	-2,632105052E-1	8,365307808E0	-4,498506486E-1	8,381528506E0
9,382986670E-1	-2,632105052E-1	8,372486115E0	-4,881358147E-1	8,390833098E0
9,394946560E-1	-2,703889608E-1	8,386843681E0	-5,240281820E-1	8,407547958E0
9,406906980E-1	-2,871387303E-1	8,384450912E0	-5,503492355E-1	8,407398530E0
9,418867400E-1	-2,991028428E-1	8,391629219E0	-5,718846321E-1	8,416409893E0
9,430827810E-1	-2,967100143E-1	8,405985832E0	-5,862415433E-1	8,431625809E0
9,442787710E-1	-2,895315289E-1	8,396414757E0	-5,934200287E-1	8,422336766E0
9,454748130E-1	-2,871387303E-1	8,377271652E0	-5,982056856E-1	8,403509923E0
9,466708540E-1	-2,967100143E-1	8,367700577E0	-5,982056856E-1	8,394301628E0
9,478668960E-1	-2,967100143E-1	8,350951195E0	-5,958128572E-1	8,377434909E0
9,490629380E-1	-2,847459018E-1	8,336593628E0	-5,814558864E-1	8,361696269E0
9,502589790E-1	-2,751746178E-1	8,334200859E0	-5,575276613E-1	8,357359758E0
9,514549690E-1	-2,751746178E-1	8,317451477E0	-5,264210105E-1	8,338635333E0
9,526510100E-1	-2,751746178E-1	8,288737297E0	-4,905286431E-1	8,307797867E0
9,538470520E-1	-2,679961324E-1	8,252845764E0	-4,522434771E-1	8,269571289E0
9,550430940E-1	-2,584248483E-1	8,212167740E0	-4,115654826E-1	8,226534418E0
9,562391350E-1	-2,632105052E-1	8,178668022E0	-3,684946895E-1	8,191195195E0
9,574351250E-1	-2,584248483E-1	8,140382767E0	-3,182454109E-1	8,150699058E0
9,586311670E-1	-2,488535494E-1	8,106883049E0	-2,560320199E-1	8,114741724E0
9,598272080E-1	-2,488535494E-1	8,080561638E0	-2,057827413E-1	8,087011253E0
9,610232500E-1	-2,440679073E-1	8,044670105E0	-1,603191197E-1	8,049968227E0
9,622192920E-1	-2,321037948E-1	8,006384850E0	-1,148554832E-1	8,010571909E0
9,634152810E-1	-2,081755698E-1	7,963313580E0	-6,939185411E-2	7,966336389E0
9,646113230E-1	-1,842473447E-1	7,922635555E0	-3,110669367E-2	7,924838727E0
9,658073650E-1	-1,579262912E-1	7,884350777E0	-2,392822644E-3	7,885932640E0
9,670034060E-1	-1,268195957E-1	7,850851059E0	3,828516230E-2	7,851968627E0
9,681994480E-1	-9,571290761E-2	7,817351341E0	8,374879509E-2	7,818385819E0
9,693954380E-1	-6,699903309E-2	7,783852100E0	1,268195957E-1	7,785173447E0
9,705914790E-1	-3,828516230E-2	7,757531166E0	1,674975902E-1	7,759433677E0
9,717875210E-1	-9,571290575E-3	7,733603001E0	2,105683982E-1	7,736475039E0
9,729835630E-1	9,571290575E-3	7,695317745E0	2,536391914E-1	7,699502559E0
9,741796040E-1	2,392822690E-2	7,652246952E0	2,919243574E-1	7,657850600E0
9,753755940E-1	4,546362907E-2	7,611568928E0	3,230310678E-1	7,618556133E0
9,765716350E-1	5,742774159E-2	7,582854748E0	3,517449200E-1	7,591225761E0
9,777676770E-1	7,178468257E-2	7,563712597E0	3,780659735E-1	7,573495571E0
9,789637190E-1	8,614161611E-2	7,546962738E0	4,043870270E-1	7,558279951E0
9,801597600E-1	8,135596663E-2	7,534998417E0	4,259224236E-1	7,547465127E0
9,813558020E-1	6,699903309E-2	7,523034573E0	4,474578202E-1	7,536627664E0
9,825517920E-1	6,939185411E-2	7,501499176E0	4,737788737E-1	7,516766029E0
9,837478330E-1	7,896314561E-2	7,484749317E0	4,905286431E-1	7,501221625E0
9,849438750E-1	8,135596663E-2	7,479963779E0	5,024927258E-1	7,497264559E0
9,861399170E-1	9,332008660E-2	7,484749317E0	5,216353536E-1	7,503484819E0
9,873359580E-1	1,148554832E-1	7,484749317E0	5,503492355E-1	7,505834291E0
9,885319480E-1	1,363908947E-1	7,477570534E0	5,742774606E-1	7,500830498E0
9,897279900E-1	1,459621787E-1	7,465606689E0	5,766702294E-1	7,489268105E0
9,909240310E-1	1,603191197E-1	7,453642368E0	5,766702294E-1	7,477635678E0
9,921200730E-1	1,866401732E-1	7,453642368E0	5,718846321E-1	7,477878786E0
9,933161150E-1	2,081755698E-1	7,453642368E0	5,623133183E-1	7,477721437E0
9,945121040E-1	2,249253243E-1	7,453642368E0	5,647061467E-1	7,478386791E0
9,957081460E-1	2,344966233E-1	7,460821152E0	5,670989752E-1	7,486016442E0
9,969041880E-1	2,440679073E-1	7,463213921E0	5,575276613E-1	7,487988265E0
9,981002290E-1	2,512463629E-1	7,467999458E0	5,407779217E-1	7,491767575E0
9,992962710E-1	2,632105052E-1	7,475177765E0	5,216353536E-1	7,497977449E0
1,000492260E0	2,943171859E-1	7,475177765E0	5,024927258E-1	7,497826629E0
1,001688302E0	3,254238665E-1	7,484749317E0	4,809573591E-1	7,507242704E0
1,002884344E0	3,302095234E-1	7,508677483E0	4,570291340E-1	7,529817494E0
1,004080385E0	3,349951804E-1	7,523034573E0	4,331009090E-1	7,542933604E0
1,005276427E0	3,445664644E-1	7,530212879E0	4,091726840E-1	7,549188986E0
1,006472417E0	3,589234054E-1	7,534998417E0	3,756731451E-1	7,552890670E0
1,007668458E0	3,780659735E-1	7,530212879E0	3,302095234E-1	7,546925083E0
1,008864500E0	3,996013701E-1	7,530212879E0	2,703889608E-1	7,545654210E0
1,010060542E0	4,211367965E-1	7,523034573E0	2,009970993E-1	7,537493298E0
1,011256583E0	4,450650215E-1	7,506284714E0	1,220339537E-1	7,520457789E0
1,012452573E0	4,642075896E-1	7,503891945E0	4,785645381E-2	7,518389006E0
1,013648615E0	4,809573591E-1	7,511070251E0	-3,110669367E-2	7,526517384E0
1,014844656E0	4,977070987E-1	7,513463020E0	-1,148554832E-1	7,530805448E0
1,016040698E0	5,192425251E-1	7,523034573E0	-1,866401732E-1	7,543241779E0
1,017236740E0	5,551348329E-1	7,551748276E0	-2,584248483E-1	7,576533515E0
1,018432781E0	5,814558864E-1	7,570890903E0	-3,373879790E-1	7,600678303E0
1,019628771E0	6,005984545E-1	7,587640762E0	-4,139583111E-1	7,622622405E0
1,020824813E0	6,245267391E-1	7,616354465E0	-4,737788737E-1	7,656589019E0
1,022020854E0	6,436693072E-1	7,645068169E0	-5,312066078E-1	7,690484896E0
1,023216896E0	6,508477330E-1	7,666603565E0	-5,910272002E-1	7,716846905E0
1,024412938E0	6,532405615E-1	7,690532207E0	-6,460621357E-1	7,745218212E0
1,025608927E0	6,484549642E-1	7,719245911E0	-6,891329288E-1	7,777027418E0
1,026804969E0	6,436693072E-1	7,750352383E0	-7,130611539E-1	7,809656103E0
1,028001010E0	6,580262184E-1	7,791030407E0	-7,274180651E-1	7,852534008E0
1,029197052E0	6,556333899E-1	7,838887215E0	-7,345965505E-1	7,900483529E0
1,030393094E0	6,412764788E-1	7,877171993E0	-7,369893789E-1	7,937520235E0
1,031589083E0	6,317051649E-1	7,913064480E0	-7,345965505E-1	7,972156105E0
1,032785125E0	6,245267391E-1	7,953742504E0	-7,250252366E-1	8,011099492E0
1,033981167E0	6,149554253E-1	7,999206066E0	-7,082754970E-1	8,054012791E0
1,035177208E0	5,934200287E-1	8,030312538E0	-6,963114142E-1	8,082259361E0
1,036373250E0	5,790630579E-1	8,059026718E0	-6,795616150E-1	8,108330880E0
1,037569292E0	5,718846321E-1	8,118846893E0	-6,556333899E-1	8,165328043E0
1,038765281E0	5,623133183E-1	8,176275253E0	-6,293123364E-1	8,219714551E0
1,039961323E0	5,599204898E-1	8,228917122E0	-5,958128572E-1	8,269436554E0
1,041157365E0	5,623133183E-1	8,274380684E0	-5,670989752E-1	8,312831841E0
1,042353406E0	5,718846321E-1	8,307880402E0	-5,431707501E-1	8,345235962E0
1,043549448E0	5,694918036E-1	8,338987350E0	-5,096712112E-1	8,373935496E0
1,044745438E0	5,551348329E-1	8,382058144E0	-4,809573591E-1	8,414178117E0
1,045941479E0	5,431707501E-1	8,427521706E0	-4,642075896E-1	8,457756514E0
1,047137521E0	5,312066078E-1	8,458627701E0	-4,546363056E-1	8,487476493E0
1,048333563E0	5,216353536E-1	8,492127419E0	-4,378865361E-1	8,519394119E0
1,049529604E0	5,192425251E-1	8,525627136E0	-4,115654826E-1	8,551334224E0
1,050725594E0	5,120640397E-1	8,571090698E0	-3,876372576E-1	8,595118846E0
1,051921635E0	5,000999570E-1	8,614161491E0	-3,780659735E-1	8,636944601E0
1,053117677E0	4,857429862E-1	8,640482903E0	-3,708875179E-1	8,662069533E0
1,054313719E0	4,737788737E-1	8,666803360E0	-3,589234054E-1	8,687161384E0
1,055509760E0	4,689932466E-1	8,709874153E0	-3,421736360E-1	8,729200721E0
1,056705750E0	4,618147612E-1	8,760123253E0	-3,230310678E-1	8,778233384E0
1,057901792E0	4,666004181E-1	8,800801277E0	-2,967100143E-1	8,818154904E0
1,059097833E0	4,689932466E-1	8,846264839E0	-2,632105052E-1	8,862597590E0
1,060293875E0	4,713860750E-1	8,901300430E0	-2,297109663E-1	8,916732659E0
1,061489917E0	4,881358147E-1	8,939585686E0	-1,962114573E-1	8,955052638E0
1,062685958E0	4,833501875E-1	8,963513374E0	-1,531406492E-1	8,977842250E0
1,063881948E0	4,713860750E-1	8,989834785E0	-1,148554832E-1	9,002917643E0
1,065077990E0	4,689932466E-1	9,020941734E0	-9,092725813E-2	9,033582468E0
1,066274031E0	4,618147612E-1	9,054440498E0	-6,939185411E-2	9,066475657E0
1,067470073E0	4,570291340E-1	9,092725754E0	-3,828516230E-2	9,104284871E0
1,068666115E0	4,570291340E-1	9,131011009E0	-7,178467698E-3	9,142444378E0
1,069862104E0	4,498506486E-1	9,174081802E0	1,914258115E-2	9,185124330E0
1,071058146E0	4,307080805E-1	9,219545364E0	3,110669367E-2	9,229652962E0
1,072254188E0	4,091726840E-1	9,257830620E0	4,307080805E-2	9,266968499E0
1,073450229E0	3,924229145E-1	9,279366493E0	5,503492057E-2	9,287823593E0
1,074646271E0	3,852444589E-1	9,300901413E0	6,699903309E-2	9,309117534E0
1,075842260E0	3,804588020E-1	9,322437286E0	8,135596663E-2	9,330552216E0
1,077038302E0	3,684946895E-1	9,334401131E0	9,810572863E-2	9,342186978E0
1,078234344E0	3,589234054E-1	9,346364975E0	1,124626622E-1	9,353930303E0
1,079430385E0	3,565305769E-1	9,358329773E0	1,220339537E-1	9,365913862E0
1,080626427E0	3,541377485E-1	9,377471924E0	1,339980662E-1	9,385113143E0
1,081822417E0	3,541377485E-1	9,399007797E0	1,483550072E-1	9,406846992E0
1,083018458E0	3,421736360E-1	9,415757179E0	1,603191197E-1	9,423336366E0
1,084214500E0	3,349951804E-1	9,437292099E0	1,674975902E-1	9,444721244E0
1,085410542E0	3,445664644E-1	9,461220741E0	1,698904037E-1	9,469017199E0
1,086606583E0	3,565305769E-1	9,487542152E0	1,794617027E-1	9,495934743E0
1,087802625E0	3,637090325E-1	9,509077072E0	1,818545163E-1	9,517767705E0
1,088998615E0	3,613162339E-1	9,528220177E0	1,746760458E-1	9,536668227E0
1,090194656E0	3,684946895E-1	9,535398483E0	1,746760458E-1	9,544114642E0
1,091390698E0	3,852444589E-1	9,547362328E0	1,746760458E-1	9,556728124E0
1,092586740E0	3,876372576E-1	9,564111710E0	1,722832322E-1	9,573514347E0
1,093782729E0	3,780659735E-1	9,578469276E0	1,746760458E-1	9,587518932E0
1,094978771E0	3,732803464E-1	9,595218658E0	1,722832322E-1	9,604022117E0
1,096174813E0	3,684946895E-1	9,614361763E0	1,507478207E-1	9,622601797E0
1,097370854E0	3,637090325E-1	9,628718376E0	1,268195957E-1	9,636419721E0
1,098566896E0	3,661018610E-1	9,643074989E0	1,052841991E-1	9,650596385E0
1,099762885E0	3,780659735E-1	9,659825325E0	7,896314561E-2	9,667543347E0
1,100958927E0	3,852444589E-1	9,667003632E0	5,982056633E-2	9,674861808E0
1,102154969E0	3,804588020E-1	9,664610863E0	4,785645381E-2	9,672214962E0
1,103351010E0	3,756731451E-1	9,664610863E0	2,632104978E-2	9,671945318E0
1,104547052E0	3,900300860E-1	9,688538551E0	2,392822644E-3	9,696386361E0
1,105743094E0	4,139583111E-1	9,717252731E0	-1,196411345E-2	9,726073476E0
1,106939083E0	4,307080805E-1	9,736394882E0	-3,349951655E-2	9,745974398E0
1,108135125E0	4,426721931E-1	9,753145218E0	-5,503492057E-2	9,763341086E0
1,109331167E0	4,522434771E-1	9,772287369E0	-6,221338734E-2	9,782944091E0
1,110527208E0	4,689932466E-1	9,796216011E0	-7,657032460E-2	9,807734999E0
1,111723250E0	5,024927258E-1	9,815358162E0	-8,614161611E-2	9,828589683E0
1,112919240E0	5,288137794E-1	9,839286804E0	-8,374879509E-2	9,853843042E0
1,114115281E0	5,527420044E-1	9,865608215E0	-9,092725813E-2	9,881498720E0
1,115311323E0	5,814558864E-1	9,891928673E0	-1,004985496E-1	9,909512792E0
1,116507365E0	6,053841114E-1	9,930213928E0	-1,148554832E-1	9,949313060E0
1,117703406E0	6,293123364E-1	9,954142570E0	-1,316052526E-1	9,974883873E0
1,118899396E0	6,628118753E-1	9,975677490E0	-1,411765367E-1	9,998669501E0
1,120095438E0	6,963114142E-1	1,000678444E1	-1,435693651E-1	1,003200860E1
1,121291479E0	7,250252366E-1	1,003789139E1	-1,411765367E-1	1,006503134E1
1,122487521E0	7,609176040E-1	1,006660461E1	-1,316052526E-1	1,009617967E1
1,123683563E0	7,944171429E-1	1,008574772E1	-1,244267747E-1	1,011775112E1
1,124879552E0	8,231309652E-1	1,010488987E1	-1,268195957E-1	1,013915317E1
1,126075594E0	8,494520187E-1	1,012881851E1	-1,435693651E-1	1,016538958E1
1,127271635E0	8,877372146E-1	1,014317513E1	-1,651047617E-1	1,018328722E1
1,128467677E0	9,379864931E-1	1,014556789E1	-1,890329868E-1	1,019058880E1
1,129663719E0	9,858429432E-1	1,013599682E1	-2,177468538E-1	1,018615391E1
1,130859708E0	1,016949654E0	1,014078236E1	-2,440679073E-1	1,019456829E1
1,132055750E0	1,043270707E0	1,015753174E1	-2,632105052E-1	1,021435972E1
1,133251792E0	1,071984529E0	1,017188931E1	-2,895315289E-1	1,023231701E1
1,134447833E0	1,107876897E0	1,019342422E1	-3,086741269E-1	1,025809770E1
1,135643875E0	1,141376376E0	1,021256733E1	-3,134597540E-1	1,028093033E1
1,136839917E0	1,160519004E0	1,023649502E1	-3,230310678E-1	1,030713266E1
1,138035906E0	1,172483087E0	1,027717304E1	-3,349951804E-1	1,034926201E1
1,139231948E0	1,177268744E0	1,031306553E1	-3,421736360E-1	1,038568077E1
1,140427990E0	1,177268744E0	1,034177971E1	-3,493520916E-1	1,041443307E1
1,141624031E0	1,165304661E0	1,038245773E1	-3,445664644E-1	1,045332911E1
1,142820073E0	1,155733347E0	1,043031406E1	-3,349951804E-1	1,049949488E1
1,144016063E0	1,129412293E0	1,049491978E1	-3,373879790E-1	1,056090640E1
1,145212104E0	1,091127157E0	1,056670475E1	-3,421736360E-1	1,062840019E1
1,146408146E0	1,048056364E0	1,062413216E1	-3,469592929E-1	1,068133826E1
1,147604188E0	1,004985452E0	1,068395329E1	-3,493520916E-1	1,073680122E1
1,148800229E0	9,690931439E-1	1,075334454E1	-3,421736360E-1	1,080234433E1
1,149996219E0	9,355936646E-1	1,082034397E1	-3,326023519E-1	1,086580892E1
1,151192260E0	9,116654396E-1	1,087777138E1	-3,230310678E-1	1,092068648E1
1,152388302E0	8,805587292E-1	1,093998528E1	-3,230310678E-1	1,098011888E1
1,153584344E0	8,470591903E-1	1,100698376E1	-3,206382394E-1	1,104418442E1
1,154780385E0	8,135597110E-1	1,107159042E1	-3,206382394E-1	1,110607054E1
1,155976375E0	7,896314859E-1	1,112901783E1	-3,230310678E-1	1,116167124E1
1,157172417E0	7,776673436E-1	1,118405342E1	-3,182454109E-1	1,121557388E1
1,158368458E0	7,537391186E-1	1,123669529E1	-3,086741269E-1	1,126617608E1
1,159564500E0	7,298108935E-1	1,127737331E1	-3,014956415E-1	1,130498441E1
1,160760542E0	7,082754970E-1	1,131805134E1	-2,895315289E-1	1,134388685E1
1,161956531E0	6,891329288E-1	1,136830044E1	-2,608176768E-1	1,139215453E1
1,163152573E0	6,652047038E-1	1,141376400E1	-2,297109663E-1	1,143543935E1
1,164348615E0	6,460621357E-1	1,144008541E1	-2,033899277E-1	1,146011858E1
1,165544656E0	6,197410822E-1	1,145922756E1	-1,770688742E-1	1,147733979E1
1,166740698E0	5,934200287E-1	1,148554897E1	-1,483550072E-1	1,150182558E1
1,167936740E0	5,790630579E-1	1,151186943E1	-1,076770201E-1	1,152692700E1
1,169132729E0	5,670989752E-1	1,154297638E1	-6,460621208E-2	1,155707917E1
1,170328771E0	5,670989752E-1	1,157886887E1	-1,435693540E-2	1,159275686E1
1,171524813E0	5,694918036E-1	1,160997581E1	5,264209956E-2	1,162405396E1
1,172720854E0	5,647061467E-1	1,164108181E1	1,196411327E-1	1,165538471E1
1,173916896E0	5,742774606E-1	1,168654537E1	1,842473447E-1	1,170209744E1
1,175112885E0	5,886343718E-1	1,172243786E1	2,608176768E-1	1,174010501E1
1,176308927E0	5,958128572E-1	1,176311588E1	3,445664644E-1	1,178323446E1
1,177504969E0	6,173482537E-1	1,180618668E1	4,402793646E-1	1,183051176E1
1,178701010E0	6,436693072E-1	1,183968639E1	5,407779217E-1	1,186949556E1
1,179897052E0	6,771687865E-1	1,188754272E1	6,340979934E-1	1,192368692E1
1,181093042E0	7,202396393E-1	1,193539906E1	7,250252366E-1	1,197907164E1
1,182289083E0	7,609176040E-1	1,199282742E1	8,087740541E-1	1,204412805E1
1,183485125E0	8,015955687E-1	1,205982590E1	8,901300430E-1	1,211917025E1
1,184681167E0	8,590233326E-1	1,212443256E1	9,738788009E-1	1,219377817E1
1,185877208E0	9,188438654E-1	1,218664551E1	1,048056364E0	1,226609249E1
1,187073198E0	9,595218897E-1	1,225364494E1	1,117448211E0	1,234184699E1
1,188269240E0	1,002592683E0	1,232542896E1	1,179661512E0	1,242227807E1
1,189465281E0	1,062413216E0	1,240917778E1	1,229910851E0	1,251515464E1
1,190661323E0	1,115055323E0	1,248814106E1	1,261017561E0	1,260107856E1
1,191857365E0	1,148554921E0	1,256710434E1	1,280160069E0	1,268424612E1
1,193053354E0	1,167697430E0	1,265085316E1	1,282552958E0	1,276920299E1
1,194249396E0	1,172483087E0	1,274417305E1	1,261017561E0	1,285997001E1
1,195445438E0	1,174875975E0	1,282552910E1	1,225125194E0	1,293736689E1
1,196641479E0	1,179661512E0	1,289731407E1	1,179661512E0	1,300476500E1
1,197837521E0	1,174875975E0	1,295234871E1	1,115055323E0	1,305323787E1
1,199033563E0	1,174875975E0	1,300020504E1	1,028913736E0	1,309367512E1
1,200229552E0	1,177268744E0	1,304566860E1	9,236295223E-1	1,313120415E1
1,201425594E0	1,179661512E0	1,307677555E1	7,944171429E-1	1,315388759E1
1,202621635E0	1,172483087E0	1,309831142E1	6,484549642E-1	1,316666141E1
1,203817677E0	1,158126116E0	1,310070419E1	4,857429862E-1	1,316076186E1
1,205013719E0	1,141376376E0	1,307916832E1	3,014956415E-1	1,313233732E1
1,206209708E0	1,124626637E0	1,303370476E1	1,004985496E-1	1,308252058E1
1,207405750E0	1,103091240E0	1,298584843E1	-1,028913707E-1	1,303302176E1
1,208601792E0	1,069591761E0	1,292602825E1	-3,062812984E-1	1,297382138E1
1,209797833E0	1,036092162E0	1,284227943E1	-5,096712112E-1	1,289408363E1
1,210993875E0	1,000199914E0	1,275374508E1	-6,987041831E-1	1,281197100E1
1,212189865E0	9,595218897E-1	1,266999626E1	-8,781659007E-1	1,273658757E1
1,213385906E0	9,020941257E-1	1,257906818E1	-1,040877819E0	1,265425449E1
1,214581948E0	8,255237937E-1	1,249053383E1	-1,208375454E0	1,257597297E1
1,215777990E0	7,537391186E-1	1,240199947E1	-1,366301775E0	1,249977976E1
1,216974031E0	6,747759581E-1	1,230628681E1	-1,505085468E0	1,241633198E1
1,218170021E0	5,958128572E-1	1,222971630E1	-1,629512191E0	1,235217648E1
1,219366063E0	5,216353536E-1	1,217228889E1	-1,739582062E0	1,230702507E1
1,220562104E0	4,426721931E-1	1,211246777E1	-1,840080619E0	1,225943436E1
1,221758146E0	3,637090325E-1	1,206700420E1	-1,933400750E0	1,222632051E1
1,222954188E0	2,871387303E-1	1,204307652E1	-2,014756680E0	1,221381943E1
1,224150177E0	2,225325108E-1	1,203589821E1	-2,086541414E0	1,221744742E1
1,225346219E0	1,531406492E-1	1,205025482E1	-2,146361828E0	1,224087262E1
1,226542260E0	9,092725813E-2	1,209093285E1	-2,199003935E0	1,228961119E1
1,227738302E0	4,546362907E-2	1,215075302E1	-2,239681959E0	1,235552675E1
1,228934344E0	1,196411345E-2	1,221535969E1	-2,273181438E0	1,242507583E1
1,230130333E0	-7,178467698E-3	1,228475189E1	-2,299502611E0	1,249811557E1
1,231326375E0	-1,435693540E-2	1,236850071E1	-2,313859463E0	1,258308235E1
1,232522417E0	-2,153540403E-2	1,247139168E1	-2,321038008E0	1,268555445E1
1,233718458E0	-1,196411345E-2	1,257906818E1	-2,321038008E0	1,279141575E1
1,234914500E0	4,785645287E-3	1,266999626E1	-2,311466694E0	1,287911901E1
1,236110542E0	2,871387079E-2	1,275613785E1	-2,287538528E0	1,295965701E1
1,237306531E0	6,221338734E-2	1,283988667E1	-2,258824587E0	1,303721015E1
1,238502573E0	9,332008660E-2	1,291406345E1	-2,220539331E0	1,310391310E1
1,239698615E0	1,268195957E-1	1,298106289E1	-2,167897224E0	1,316145339E1
1,240894656E0	1,435693651E-1	1,303609753E1	-2,110469580E0	1,320660943E1
1,242090646E0	1,603191197E-1	1,306959724E1	-2,043470621E0	1,322935548E1
1,243286688E0	1,770688742E-1	1,308395386E1	-1,962114573E0	1,323144344E1
1,244482729E0	1,890329868E-1	1,308873940E1	-1,868794441E0	1,322282969E1
1,245678771E0	2,057827413E-1	1,308873940E1	-1,773081541E0	1,320989264E1
1,246874813E0	2,368894368E-1	1,307438278E1	-1,667797327E0	1,318245613E1
1,248070854E0	2,751746178E-1	1,304566860E1	-1,548156261E0	1,314009049E1
1,249266844E0	3,014956415E-1	1,299541950E1	-1,421336651E0	1,307639192E1
1,250462885E0	3,302095234E-1	1,291884899E1	-1,282552958E0	1,298655611E1
1,251658927E0	3,684946895E-1	1,283749390E1	-1,146162033E0	1,289382508E1
1,252854969E0	4,235295951E-1	1,275613785E1	-1,004985452E0	1,280267261E1
1,254051010E0	4,785645306E-1	1,266760349E1	-8,542376757E-1	1,270538958E1
1,255247000E0	5,240281820E-1	1,257428265E1	-7,130611539E-1	1,260538162E1
1,256443042E0	5,718846321E-1	1,249053383E1	-5,766702294E-1	1,251691000E1
1,257639083E0	6,149554253E-1	1,240917778E1	-4,474578202E-1	1,243246081E1
1,258835125E0	6,580262184E-1	1,231585789E1	-3,182454109E-1	1,233752950E1
1,260031167E0	6,987041831E-1	1,223210907E1	-1,818545163E-1	1,225339752E1
1,261227156E0	7,322037220E-1	1,217468166E1	-4,785645381E-2	1,219677360E1
1,262423198E0	7,776673436E-1	1,211964703E1	7,417750359E-2	1,214479777E1
1,263619240E0	8,374879360E-1	1,205504036E1	1,938186288E-1	1,208565057E1
1,264815281E0	8,901300430E-1	1,200479126E1	3,182454109E-1	1,204195270E1
1,266011323E0	9,355936646E-1	1,195693493E1	4,450650215E-1	1,200173784E1
1,267207313E0	9,690931439E-1	1,189950657E1	5,694918036E-1	1,195247753E1
1,268403354E0	9,906286001E-1	1,186122227E1	6,939185858E-1	1,192272879E1
1,269599396E0	1,019342422E0	1,182772255E1	8,135597110E-1	1,189941003E1
1,270795438E0	1,052842021E0	1,179422283E1	9,332008362E-1	1,187783786E1
1,271991479E0	1,067198873E0	1,176072311E1	1,069591761E0	1,185738370E1
1,273187469E0	1,067198873E0	1,172483063E1	1,217946768E0	1,183612948E1
1,274383510E0	1,057627559E0	1,168654537E1	1,366301775E0	1,181358114E1
1,275579552E0	1,048056364E0	1,165304661E1	1,521835208E0	1,179863974E1
1,276775594E0	1,033699393E0	1,162193966E1	1,672582984E0	1,178709250E1
1,277971635E0	1,000199914E0	1,159561825E1	1,811366796E0	1,177878653E1
1,279167625E0	9,762716293E-1	1,157647610E1	1,940579176E0	1,177852931E1
1,280363667E0	9,619147182E-1	1,155733299E1	2,062613010E0	1,177928683E1
1,281559708E0	9,308080077E-1	1,153101254E1	2,184647083E0	1,177299182E1
1,282755750E0	8,877372146E-1	1,149272728E1	2,313859463E0	1,175690449E1
1,283951792E0	8,470591903E-1	1,145204926E1	2,445464849E0	1,174083642E1
1,285147833E0	8,087740541E-1	1,141854954E1	2,569891453E0	1,173208128E1
1,286343823E0	7,657032609E-1	1,138744259E1	2,687139750E0	1,172522368E1
1,287539865E0	7,250252366E-1	1,136830044E1	2,794816732E0	1,172923344E1
1,288735906E0	6,843472719E-1	1,134915733E1	2,895315409E0	1,173262778E1
1,289931948E0	6,340979934E-1	1,132762241E1	2,981456995E0	1,173056672E1
1,291127990E0	5,838487148E-1	1,130608654E1	3,065205812E0	1,172876630E1
1,292323979E0	5,431707501E-1	1,128694439E1	3,141776085E0	1,172863611E1
1,293520021E0	5,024927258E-1	1,126540947E1	3,203989506E0	1,172294751E1
1,294716063E0	4,713860750E-1	1,125344467E1	3,256631613E0	1,172466935E1
1,295912104E0	4,450650215E-1	1,124865913E1	3,306880951E0	1,173311028E1
1,297108094E0	4,115654826E-1	1,123190975E1	3,347558975E0	1,172737541E1
1,298304135E0	3,780659735E-1	1,121037388E1	3,366701365E0	1,171110987E1
1,299500177E0	3,469592929E-1	1,118883896E1	3,373879910E0	1,169160227E1
1,300696219E0	3,134597540E-1	1,117208862E1	3,366701365E0	1,167255325E1
1,301892260E0	2,751746178E-1	1,114337540E1	3,337987661E0	1,163583680E1
1,303088302E0	2,368894368E-1	1,109551907E1	3,304488182E0	1,157956399E1
1,304284292E0	2,057827413E-1	1,104766178E1	3,261417150E0	1,152085150E1
1,305480333E0	1,794617027E-1	1,101177025E1	3,211168051E0	1,147183031E1
1,306676375E0	1,555334777E-1	1,097348499E1	3,153740168E0	1,141874076E1
1,307872417E0	1,459621787E-1	1,092562866E1	3,079562664E0	1,135228492E1
1,309068458E0	1,435693651E-1	1,086820030E1	2,998206854E0	1,127508910E1
1,310264448E0	1,387837082E-1	1,082034397E1	2,912065268E0	1,120621384E1
1,311460490E0	1,459621787E-1	1,077009487E1	2,809173822E0	1,113138383E1
1,312656531E0	1,603191197E-1	1,070309544E1	2,689532757E0	1,103700777E1
1,313852573E0	1,698904037E-1	1,063370419E1	2,569891453E0	1,094115485E1
1,315048615E0	1,794617027E-1	1,056191921E1	2,440679073E0	1,084173687E1
1,316244604E0	2,057827413E-1	1,048534870E1	2,292324066E0	1,073497245E1
1,317440646E0	2,440679073E-1	1,040877819E1	2,134397745E0	1,062816477E1
1,318636688E0	2,679961324E-1	1,034417248E1	1,976471543E0	1,053471243E1
1,319832729E0	2,823530734E-1	1,028913784E1	1,825723648E0	1,045367627E1
1,321028771E0	3,038884699E-1	1,023410225E1	1,670190215E0	1,037394488E1
1,322224760E0	3,206382394E-1	1,017667484E1	1,517049551E0	1,029412255E1
1,323420802E0	3,397808075E-1	1,012642574E1	1,378265858E0	1,022543721E1
1,324616844E0	3,661018610E-1	1,010010433E1	1,237089276E0	1,018216715E1
1,325812885E0	3,996013701E-1	1,007856941E1	1,083948612E0	1,014456442E1
1,327008927E0	4,163511395E-1	1,004267693E1	9,475577474E-1	1,009586914E1
1,328204917E0	4,235295951E-1	1,001874828E1	8,327022791E-1	1,006221087E1
1,329400958E0	4,259224236E-1	1,000917721E1	7,226324677E-1	1,004426383E1
1,330597000E0	4,307080805E-1	1,001156998E1	6,173482537E-1	1,003982877E1
1,331793042E0	4,498506486E-1	1,000917721E1	5,216353536E-1	1,003285091E1
1,332989083E0	4,642075896E-1	9,994820595E0	4,283152521E-1	1,001475818E1
1,334185073E0	4,809573591E-1	9,980463028E0	3,445664644E-1	9,997984211E0
1,335381115E0	5,048855543E-1	9,968499184E0	2,679961324E-1	9,984873926E0
1,336577156E0	5,240281820E-1	9,954142570E0	2,009970993E-1	9,969952843E0
1,337773198E0	5,551348329E-1	9,934999466E0	1,483550072E-1	9,951602800E0
1,338969240E0	5,790630579E-1	9,920642853E0	1,004985496E-1	9,938036456E0
1,340165281E0	5,910272002E-1	9,911071777E0	5,264209956E-2	9,928818062E0
1,341361271E0	6,125625968E-1	9,906285286E0	9,571290575E-3	9,925210966E0
1,342557313E0	6,269195080E-1	9,908679008E0	-1,914258115E-2	9,928510170E0
1,343753354E0	6,436693072E-1	9,887143135E0	-4,785645381E-2	9,908188522E0
1,344949396E0	6,556333899E-1	9,858428955E0	-7,896314561E-2	9,880521838E0
1,346145385E0	6,723831892E-1	9,834501266E0	-1,004985496E-1	9,857972118E0
1,347341427E0	6,771687865E-1	9,810572624E0	-1,196411327E-1	9,834643195E0
1,348537469E0	6,747759581E-1	9,793823242E0	-1,435693651E-1	9,818090876E0
1,349733510E0	6,795616150E-1	9,777072906E0	-1,531406492E-1	9,801857511E0
1,350929552E0	6,723831892E-1	9,767501831E0	-1,339980662E-1	9,791534438E0
1,352125594E0	6,652047038E-1	9,748359680E0	-1,172483116E-1	9,771732749E0
1,353321583E0	6,580262184E-1	9,714859962E0	-1,052841991E-1	9,737689015E0
1,354517625E0	6,532405615E-1	9,671789169E0	-7,657032460E-2	9,694126675E0
1,355713667E0	6,532405615E-1	9,631111145E0	-4,785645381E-2	9,653357725E0
1,356909708E0	6,460621357E-1	9,600004196E0	-2,392822644E-3	9,621719315E0
1,358105750E0	6,269195080E-1	9,556933403E0	5,503492057E-2	9,577631909E0
1,359301740E0	5,958128572E-1	9,516255379E0	1,076770201E-1	9,535497037E0
1,360497781E0	5,647061467E-1	9,482755661E0	1,603191197E-1	9,500907861E0
1,361693823E0	5,431707501E-1	9,456435204E0	2,249253243E-1	9,474692218E0
1,362889865E0	5,359922647E-1	9,422935486E0	2,991028428E-1	9,442905453E0
1,364085906E0	5,240281820E-1	9,372686386E0	3,708875179E-1	9,394648114E0
1,365281896E0	5,024927258E-1	9,310472488E0	4,378865361E-1	9,334299198E0
1,366477938E0	4,713860750E-1	9,253045082E0	5,096712112E-1	9,279052369E0
1,367673979E0	4,450650215E-1	9,205188751E0	5,958128572E-1	9,235181416E0
1,368870021E0	4,331009090E-1	9,145368576E0	6,795616150E-1	9,180803166E0
1,370066063E0	4,402793646E-1	9,073583603E0	7,680960894E-1	9,116673567E0
1,371262052E0	4,402793646E-1	9,001798630E0	8,614161611E-1	9,053632547E0
1,372458094E0	4,283152521E-1	8,934800148E0	9,475577474E-1	8,995108300E0
1,373654135E0	4,091726840E-1	8,870193481E0	1,036092162E0	8,939868100E0
1,374850177E0	3,972085714E-1	8,812766075E0	1,119840980E0	8,892506079E0
1,376046219E0	3,828516304E-1	8,764909744E0	1,210768223E0	8,856420151E0
1,377242208E0	3,756731451E-1	8,717052460E0	1,301695466E0	8,821708734E0
1,378438250E0	3,637090325E-1	8,654839516E0	1,375872970E0	8,771063660E0
1,379634292E0	3,373879790E-1	8,592626572E0	1,450050473E0	8,720648395E0
1,380830333E0	3,206382394E-1	8,551948547E0	1,519442320E0	8,691797156E0
1,382026375E0	3,086741269E-1	8,523234367E0	1,576870084E0	8,673368611E0
1,383222365E0	2,871387303E-1	8,501698494E0	1,643869162E0	8,663927040E0
1,384418406E0	2,727817893E-1	8,484949112E0	1,710868239E0	8,660013942E0
1,385614448E0	2,584248483E-1	8,453842163E0	1,768295884E0	8,640665545E0
1,386810490E0	2,440679073E-1	8,434700012E0	1,823330879E0	8,632975671E0
1,388006531E0	2,201396823E-1	8,429914474E0	1,864008784E0	8,636344613E0
1,389202521E0	2,009970993E-1	8,408378601E0	1,902294040E0	8,623221738E0
1,390398563E0	1,914258152E-1	8,391629219E0	1,945364833E0	8,616294396E0
1,391594604E0	1,722832322E-1	8,379665375E0	1,988435626E0	8,614078566E0
1,392790646E0	1,507478207E-1	8,372486115E0	2,029113531E0	8,616179569E0
1,393986688E0	1,363908947E-1	8,367700577E0	2,067398787E0	8,620391706E0
1,395182729E0	1,196411327E-1	8,365307808E0	2,100898266E0	8,625918052E0
1,396378719E0	1,124626622E-1	8,367700577E0	2,132004976E0	8,635768988E0
1,397574760E0	1,100698411E-1	8,372486115E0	2,153540373E0	8,645714270E0
1,398770802E0	9,810572863E-2	8,372486115E0	2,184647083E0	8,653371097E0
1,399966844E0	7,417750359E-2	8,382058144E0	2,203789711E0	8,667242359E0
1,401162833E0	5,982056633E-2	8,394021988E0	2,210968018E0	8,680527819E0
1,402358875E0	5,503492057E-2	8,391629219E0	2,220539331E0	8,680625825E0
1,403554917E0	4,785645381E-2	8,394021988E0	2,230110645E0	8,685349093E0
1,404750958E0	3,589234129E-2	8,403593063E0	2,227717876E0	8,693928431E0
1,405947000E0	4,067798331E-2	8,398807526E0	2,222932339E0	8,688098223E0
1,407142990E0	4,785645381E-2	8,382058144E0	2,210968018E0	8,668885080E0
1,408339031E0	5,264209956E-2	8,370093346E0	2,194218397E0	8,653082005E0
1,409535073E0	6,221338734E-2	8,367700577E0	2,170290232E0	8,644792834E0
1,410731115E0	6,221338734E-2	8,370093346E0	2,139183521E0	8,639354100E0
1,411927156E0	5,264209956E-2	8,379665375E0	2,108076811E0	8,640923031E0
1,413123198E0	4,546362907E-2	8,374878883E0	2,074577332E0	8,628124614E0
1,414319188E0	3,828516230E-2	8,374878883E0	2,041077614E0	8,620096281E0
1,415515229E0	4,307080805E-2	8,396414757E0	2,000399828E0	8,631525667E0
1,416711271E0	4,546362907E-2	8,408378601E0	1,950150490E0	8,631684921E0
1,417907313E0	5,024927482E-2	8,410771370E0	1,904686809E0	8,623887283E0
1,419103354E0	5,982056633E-2	8,413164139E0	1,854437590E0	8,615326349E0
1,420299344E0	6,699903309E-2	8,413164139E0	1,804188251E0	8,604703071E0
1,421495385E0	7,657032460E-2	8,425128937E0	1,751546144E0	8,605612966E0
1,422691427E0	1,028913707E-1	8,429914474E0	1,691725612E0	8,598603388E0
1,423887469E0	1,363908947E-1	8,408378601E0	1,619940877E0	8,564090239E0
1,425083510E0	1,746760458E-1	8,384450912E0	1,545763373E0	8,527538521E0
1,426279500E0	2,153540403E-1	8,367700577E0	1,469193101E0	8,498430365E0
1,427475542E0	2,464607358E-1	8,360522270E0	1,371087432E0	8,475786469E0
1,428671583E0	2,799602449E-1	8,346165657E0	1,258624673E0	8,445175841E0
1,429867625E0	3,349951804E-1	8,329415321E0	1,162911773E0	8,416872647E0
1,431063667E0	3,924229145E-1	8,317451477E0	1,064806104E0	8,394510519E0
1,432259656E0	4,331009090E-1	8,307880402E0	9,523434043E-1	8,373494559E0
1,433455698E0	4,666004181E-1	8,298309326E0	8,446664214E-1	8,354227372E0
1,434651740E0	4,929214716E-1	8,291130066E0	7,393822074E-1	8,338614717E0
1,435847781E0	5,144568682E-1	8,295916557E0	6,317051649E-1	8,335823223E0
1,437043823E0	5,383850932E-1	8,305487633E0	5,312066078E-1	8,339853943E0
1,438239813E0	5,647061467E-1	8,315058708E0	4,378865361E-1	8,345707817E0
1,439435854E0	5,766702294E-1	8,322237015E0	3,493520916E-1	8,349504438E0
1,440631896E0	5,718846321E-1	8,327022552E0	2,703889608E-1	8,351015915E0
1,441827938E0	5,623133183E-1	8,343772888E0	1,938186288E-1	8,364945184E0
1,443023979E0	5,623133183E-1	8,379665375E0	1,196411327E-1	8,399363194E0
1,444220021E0	5,575276613E-1	8,422736168E0	6,221338734E-2	8,441397524E0
1,445416010E0	5,647061467E-1	8,458627701E0	1,674975827E-2	8,477473454E0
1,446612052E0	5,647061467E-1	8,477770805E0	-3,110669367E-2	8,496614531E0
1,447808094E0	5,383850932E-1	8,489734650E0	-6,460621208E-2	8,507033966E0
1,449004135E0	5,120640397E-1	8,504091263E0	-8,853443712E-2	8,519953998E0
1,450200125E0	4,881358147E-1	8,518448830E0	-1,172483116E-1	8,533228826E0
1,451396167E0	4,618147612E-1	8,539983749E0	-1,435693651E-1	8,553666318E0
1,452592208E0	4,378865361E-1	8,561519623E0	-1,579262912E-1	8,574164891E0
1,453788250E0	4,283152521E-1	8,583054543E0	-1,627119333E-1	8,595275121E0
1,454984292E0	4,019941986E-1	8,602197647E0	-1,603191197E-1	8,613077610E0
1,456180281E0	3,708875179E-1	8,618947029E0	-1,627119333E-1	8,628457603E0
1,457376323E0	3,541377485E-1	8,645268440E0	-1,674975902E-1	8,654139783E0
1,458572365E0	3,326023519E-1	8,664410591E0	-1,746760458E-1	8,672551351E0
1,459768406E0	3,062812984E-1	8,676374435E0	-1,770688742E-1	8,683584223E0
1,460964448E0	2,943171859E-1	8,688339233E0	-1,794617027E-1	8,695174969E0
1,462160438E0	2,895315289E-1	8,697910309E0	-1,866401732E-1	8,704728991E0
1,463356479E0	2,679961324E-1	8,702695847E0	-1,794617027E-1	8,708670589E0
1,464552521E0	2,440679073E-1	8,709874153E0	-1,674975902E-1	8,714902888E0
1,465748563E0	2,225325108E-1	8,712266922E0	-1,603191197E-1	8,716582923E0
1,466944604E0	1,938186288E-1	8,709874153E0	-1,483550072E-1	8,713293443E0
1,468140594E0	1,674975902E-1	8,700303078E0	-1,411765367E-1	8,703060376E0
1,469336635E0	1,483550072E-1	8,685946465E0	-1,387837082E-1	8,688321824E0
1,470532677E0	1,292124242E-1	8,662017822E0	-1,268195957E-1	8,663909730E0
1,471728719E0	1,100698411E-1	8,640482903E0	-1,052841991E-1	8,641825323E0
1,472924760E0	9,571290761E-2	8,628518105E0	-8,135596663E-2	8,629432451E0
1,474120750E0	9,332008660E-2	8,626125336E0	-5,982056633E-2	8,626837511E0
1,475316792E0	8,374879509E-2	8,609375954E0	-3,589234129E-2	8,609858096E0
1,476512833E0	6,221338734E-2	8,583054543E0	-7,178467698E-3	8,583283015E0
1,477708875E0	4,546362907E-2	8,554341316E0	2,392822690E-2	8,554495593E0
1,478904917E0	3,110669367E-2	8,525627136E0	5,264209956E-2	8,525846403E0
1,480100958E0	1,196411345E-2	8,499305725E0	7,657032460E-2	8,499659050E0
1,481296948E0	-1,435693540E-2	8,463413239E0	1,052841991E-1	8,464080253E0
1,482492990E0	-3,110669367E-2	8,437092781E0	1,316052526E-1	8,438176472E0
1,483689031E0	-5,742774159E-2	8,422736168E0	1,459621787E-1	8,424196547E0
1,484885073E0	-7,896314561E-2	8,408378601E0	1,794617027E-1	8,410664206E0
1,486081063E0	-9,092725813E-2	8,396414757E0	2,177468538E-1	8,399729890E0
1,487277104E0	-1,076770201E-1	8,382058144E0	2,392822653E-1	8,386164145E0
1,488473146E0	-1,172483116E-1	8,360522270E0	2,536391914E-1	8,365190532E0
1,489669188E0	-1,244267747E-1	8,346165657E0	2,656033039E-1	8,351317759E0
1,490865229E0	-1,387837082E-1	8,336593628E0	2,823530734E-1	8,342528243E0
1,492061219E0	-1,674975902E-1	8,315058708E0	3,062812984E-1	8,322383372E0
1,493257260E0	-2,009970993E-1	8,298309326E0	3,278166950E-1	8,307213810E0
1,494453302E0	-2,081755698E-1	8,286344528E0	3,589234054E-1	8,296726386E0
1,495649344E0	-2,081755698E-1	8,262416840E0	3,972085714E-1	8,274578161E0
1,496845385E0	-2,153540403E-1	8,226524353E0	4,402793646E-1	8,241111952E0
1,498041427E0	-2,153540403E-1	8,193024635E0	4,809573591E-1	8,209954325E0
1,499237417E0	-2,201396823E-1	8,169096947E0	5,216353536E-1	8,188694026E0
1,500433458E0	-2,321037948E-1	8,145168304E0	5,503492355E-1	8,167038824E0
1,501629500E0	-2,416750938E-1	8,118846893E0	5,766702294E-1	8,142888325E0
1,502825542E0	-2,488535494E-1	8,097311974E0	6,125625968E-1	8,124261334E0
1,504021583E0	-2,488535494E-1	8,073383331E0	6,484549642E-1	8,103205560E0
1,505217573E0	-2,440679073E-1	8,066205025E0	6,843472719E-1	8,098861885E0
1,506413615E0	-2,273181528E-1	8,059026718E0	7,130611539E-1	8,093703812E0
1,507609656E0	-2,081755698E-1	8,035098076E0	7,322037220E-1	8,071075545E0
1,508805698E0	-1,890329868E-1	8,020741463E0	7,465606928E-1	8,057628680E0
1,510001740E0	-1,722832322E-1	8,003992081E0	7,537391186E-1	8,041249492E0
1,511197729E0	-1,603191197E-1	7,977670670E0	7,489534616E-1	8,014353550E0
1,512393771E0	-1,483550072E-1	7,963313580E0	7,489534616E-1	7,999831477E0
1,513589813E0	-1,268195957E-1	7,934599876E0	7,417750359E-1	7,970206309E0
1,514785854E0	-9,810572863E-2	7,896314621E0	7,298108935E-1	7,930575847E0
1,515981896E0	-7,417750359E-2	7,862815380E0	7,178468108E-1	7,895864237E0
1,517177885E0	-5,503492057E-2	7,838887215E0	6,963114142E-1	7,869944802E0
1,518373927E0	-2,632104978E-2	7,819744587E0	6,771687865E-1	7,849054451E0
1,519569969E0	9,571290575E-3	7,798209190E0	6,580262184E-1	7,825928487E0
1,520766010E0	4,067798331E-2	7,779066563E0	6,317051649E-1	7,804779478E0
1,521962052E0	6,699903309E-2	7,764709473E0	5,958128572E-1	7,787823510E0
1,523158042E0	8,374879509E-2	7,745566845E0	5,575276613E-1	7,766057990E0
1,524354083E0	1,028913707E-1	7,721638680E0	5,359922647E-1	7,740902934E0
1,525550125E0	1,268195957E-1	7,716853142E0	5,072783828E-1	7,734548272E0
1,526746167E0	1,411765367E-1	7,712067604E0	4,689932466E-1	7,727604558E0
1,527942208E0	1,579262912E-1	7,702496052E0	4,378865361E-1	7,716549148E0
1,529138198E0	1,842473447E-1	7,688138962E0	3,996013701E-1	7,700721332E0
1,530334240E0	2,009970993E-1	7,683353424E0	3,493520916E-1	7,693917504E0
1,531530281E0	2,057827413E-1	7,673782349E0	3,014956415E-1	7,682459352E0
1,532726323E0	2,177468538E-1	7,657032490E0	2,560320199E-1	7,664405563E0
1,533922365E0	2,297109663E-1	7,647460938E0	2,081755698E-1	7,653741764E0
1,535118354E0	2,488535494E-1	7,630711555E0	1,603191197E-1	7,636451345E0
1,536314396E0	2,751746178E-1	7,616354465E0	1,100698411E-1	7,622118589E0
1,537510438E0	2,967100143E-1	7,616354465E0	5,024927482E-2	7,622297368E0
1,538706479E0	3,062812984E-1	7,611568928E0	-9,571290575E-3	7,617734662E0
1,539902521E0	3,206382394E-1	7,604390144E0	-6,939185411E-2	7,611463301E0
1,541098510E0	3,493520916E-1	7,609176159E0	-1,363908947E-1	7,618412642E0
1,542294552E0	3,732803464E-1	7,609176159E0	-2,033899277E-1	7,621041103E0
1,543490594E0	3,876372576E-1	7,606783390E0	-2,656033039E-1	7,621283442E0
1,544686635E0	4,163511395E-1	7,616354465E0	-3,254238665E-1	7,634664649E0
1,545882677E0	4,474578202E-1	7,637889862E0	-3,876372576E-1	7,660799089E0
1,547078667E0	4,689932466E-1	7,661818027E0	-4,474578202E-1	7,689189076E0
1,548274708E0	4,809573591E-1	7,671389580E0	-5,048855543E-1	7,703015480E0
1,549470750E0	4,689932466E-1	7,673782349E0	-5,647061467E-1	7,708812051E0
1,550666792E0	4,642075896E-1	7,690532207E0	-6,245267391E-1	7,729799995E0
1,551862833E0	4,642075896E-1	7,712067604E0	-6,723831892E-1	7,755228853E0
1,553058823E0	4,570291340E-1	7,724031448E0	-7,082754970E-1	7,769890065E0
1,554254865E0	4,402793646E-1	7,738388538E0	-7,441678643E-1	7,786545376E0
1,555450906E0	4,115654826E-1	7,759923935E0	-7,824530005E-1	7,810124091E0
1,556646948E0	3,852444589E-1	7,771887779E0	-8,159525394E-1	7,824093014E0
1,557842990E0	3,661018610E-1	7,795815945E0	-8,303094506E-1	7,848451478E0
1,559038979E0	3,373879790E-1	7,822137356E0	-8,350951076E-1	7,873820375E0
1,560235021E0	3,206382394E-1	7,841279984E0	-8,327022791E-1	7,891886577E0
1,561431063E0	3,014956415E-1	7,872386456E0	-8,279166222E-1	7,921541142E0
1,562627104E0	2,656033039E-1	7,913064480E0	-8,159525394E-1	7,959454323E0
1,563823146E0	1,890329868E-1	7,915457249E0	-8,901300430E-1	7,967592385E0
1,565019135E0	6,939185411E-2	7,872386456E0	-1,081555843E0	7,946637451E0
1,566215177E0	-4,546362907E-2	7,831708431E0	-1,246660590E0	7,930440500E0
1,567411219E0	-1,100698411E-1	7,812565804E0	-1,316052437E0	7,923401657E0
1,568607260E0	-1,244267747E-1	7,814958572E0	-1,313659668E0	7,925576398E0
1,569803302E0	-9,810572863E-2	7,846065521E0	-1,253839016E0	7,946224335E0
1,570999292E0	-2,871387079E-2	7,920242786E0	-1,155733347E0	8,004173277E0
1,572195333E0	6,699903309E-2	8,030312538E0	-1,036092162E0	8,097153531E0
1,573391375E0	1,603191197E-1	8,169096947E0	-8,925228715E-1	8,219272731E0
1,574587417E0	2,416750938E-1	8,300702095E0	-7,561319470E-1	8,338572878E0
1,575783458E0	3,158525825E-1	8,405985832E0	-6,388836503E-1	8,436144438E0
1,576979448E0	3,613162339E-1	8,499305725E0	-5,407779217E-1	8,524153212E0
1,578175490E0	3,804588020E-1	8,583054543E0	-4,713860750E-1	8,604404629E0
1,579371531E0	3,876372576E-1	8,638090134E0	-4,235295951E-1	8,657149711E0
1,580567573E0	3,732803464E-1	8,654839516E0	-3,780659735E-1	8,671131364E0
1,581763615E0	3,373879790E-1	8,654839516E0	-3,445664644E-1	8,668264171E0
1,582959604E0	2,919243574E-1	8,654839516E0	-3,182454109E-1	8,665607135E0
1,584155646E0	2,344966233E-1	8,650053978E0	-2,943171859E-1	8,658235680E0
1,585351688E0	1,770688742E-1	8,626125336E0	-2,799602449E-1	8,632483387E0
1,586547729E0	1,172483116E-1	8,606983185E0	-2,727817893E-1	8,612102915E0
1,587743771E0	6,460621208E-2	8,599804878E0	-2,584248483E-1	8,603929411E0
1,588939760E0	3,589234129E-2	8,587840080E0	-2,368894368E-1	8,591181648E0
1,590135802E0	1,914258115E-2	8,573483467E0	-2,249253243E-1	8,576454780E0
1,591331844E0	1,914258115E-2	8,566305161E0	-2,201396823E-1	8,569154685E0
1,592527885E0	2,153540403E-2	8,568697929E0	-2,105683982E-1	8,571311862E0
1,593723927E0	2,632104978E-2	8,580661774E0	-1,986042857E-1	8,583000229E0
1,594919917E0	5,264209956E-2	8,602197647E0	-1,890329868E-1	8,604435427E0
1,596115958E0	9,332008660E-2	8,635697365E0	-1,698904037E-1	8,637872444E0
1,597312000E0	1,244267747E-1	8,681160927E0	-1,435693651E-1	8,683239558E0
1,598508042E0	1,531406492E-1	8,726624489E0	-1,172483116E-1	8,728755593E0
1,599704083E0	2,009970993E-1	8,784051895E0	-9,332008660E-2	8,786846771E0
1,600900073E0	2,488535494E-1	8,853444099E0	-6,939185411E-2	8,857212639E0
1,602096115E0	2,847459018E-1	8,925228119E0	-3,349951655E-2	8,929831993E0
1,603292156E0	3,158525825E-1	8,985049248E0	-4,785645287E-3	8,990600410E0
1,604488198E0	3,493520916E-1	9,042476654E0	7,178467698E-3	9,049225517E0
1,605684240E0	3,732803464E-1	9,095118523E0	2,153540403E-2	9,102800829E0
1,606880229E0	3,972085714E-1	9,138189316E0	3,589234129E-2	9,146888372E0
1,608076271E0	4,043870270E-1	9,193224907E0	4,307080805E-2	9,202215394E0
1,609272313E0	4,043870270E-1	9,243474007E0	5,503492057E-2	9,252479096E0
1,610468354E0	4,043870270E-1	9,288937569E0	7,178468257E-2	9,298012856E0
1,611664396E0	3,924229145E-1	9,322437286E0	8,374879509E-2	9,331068886E0
1,612860438E0	3,780659735E-1	9,351150513E0	1,028913707E-1	9,359355556E0
1,614056427E0	3,756731451E-1	9,375079155E0	1,316052526E-1	9,383525959E0
1,615252469E0	3,756731451E-1	9,391828537E0	1,483550072E-1	9,400509709E0
1,616448510E0	3,780659735E-1	9,401400566E0	1,603191197E-1	9,410364961E0
1,617644552E0	3,828516304E-1	9,399007797E0	1,746760458E-1	9,408423601E0
1,618840542E0	3,732803464E-1	9,394221306E0	1,962114573E-1	9,403681784E0
1,620036583E0	3,732803464E-1	9,379864693E0	2,249253243E-1	9,389983561E0
1,621232625E0	3,828516304E-1	9,370293617E0	2,488535494E-1	9,381412790E0
1,622428667E0	3,900300860E-1	9,363115311E0	2,727817893E-1	9,375204621E0
1,623624708E0	3,996013701E-1	9,358329773E0	2,991028428E-1	9,371631656E0
1,624820698E0	4,163511395E-1	9,351150513E0	3,158525825E-1	9,365742204E0
1,626016740E0	4,235295951E-1	9,336793900E0	3,278166950E-1	9,352142077E0
1,627212781E0	4,235295951E-1	9,324830055E0	3,397808075E-1	9,340625454E0
1,628408823E0	4,331009090E-1	9,322437286E0	3,469592929E-1	9,338939667E0
1,629604865E0	4,378865361E-1	9,324830055E0	3,541377485E-1	9,341820686E0
1,630800906E0	4,474578202E-1	9,308079720E0	3,684946895E-1	9,326111457E0
1,631996896E0	4,737788737E-1	9,288937569E0	3,708875179E-1	9,308404005E0
1,633192938E0	4,881358147E-1	9,274580956E0	3,684946895E-1	9,294725214E0
1,634388979E0	5,024927258E-1	9,253045082E0	3,732803464E-1	9,274194329E0
1,635585021E0	5,168496966E-1	9,233902931E0	3,756731451E-1	9,255983322E0
1,636781010E0	5,288137794E-1	9,209974289E0	3,732803464E-1	9,232692383E0
1,637977052E0	5,551348329E-1	9,181260109E0	3,780659735E-1	9,205794140E0
1,639173094E0	5,886343718E-1	9,154939651E0	3,924229145E-1	9,182233181E0
1,640369135E0	6,245267391E-1	9,135796547E0	3,948157430E-1	9,165625547E0
1,641565177E0	6,532405615E-1	9,107083321E0	3,948157430E-1	9,139013585E0
1,642761219E0	6,795616150E-1	9,083154678E0	3,900300860E-1	9,116886879E0
1,643957208E0	7,178468108E-1	9,071190834E0	3,732803464E-1	9,107202941E0
1,645153250E0	7,489534616E-1	9,049654961E0	3,517449200E-1	9,087403957E0
1,646349292E0	7,585247755E-1	9,023334503E0	3,302095234E-1	9,061178937E0
1,647545333E0	7,728816867E-1	9,008976936E0	3,086741269E-1	9,047336142E0
1,648741375E0	7,872386575E-1	8,994620323E0	2,799602449E-1	9,033344741E0
1,649937365E0	7,896314859E-1	8,985049248E0	2,512463629E-1	9,023178631E0
1,651133406E0	7,920243144E-1	8,989834785E0	2,273181528E-1	9,027519345E0
1,652329448E0	7,872386575E-1	9,001798630E0	1,986042857E-1	9,038338727E0
1,653525490E0	7,824530005E-1	9,025727272E0	1,698904037E-1	9,061172564E0
1,654721531E0	7,609176040E-1	9,064012527E0	1,387837082E-1	9,096954414E0
1,655917521E0	7,345965505E-1	9,109476089E0	1,004985496E-1	9,139599919E0
1,657113563E0	6,963114142E-1	9,145368576E0	7,178468257E-2	9,172119113E0
1,658309604E0	6,580262184E-1	9,202795982E0	4,785645381E-2	9,226415481E0
1,659505646E0	6,197410822E-1	9,276973724E0	2,632104978E-2	9,297688599E0
1,660701688E0	5,838487148E-1	9,336793900E0	1,435693540E-2	9,355041730E0
1,661897677E0	5,527420044E-1	9,399007797E0	1,435693540E-2	9,415257693E0
1,663093719E0	5,120640397E-1	9,477970123E0	1,914258115E-2	9,491811928E0
1,664289760E0	4,594219327E-1	9,566504478E0	2,871387079E-2	9,577572810E0
1,665485802E0	3,972085714E-1	9,662218094E0	4,546362907E-2	9,670486031E0
1,666681844E0	3,373879790E-1	9,755537987E0	5,503492057E-2	9,761525542E0
1,667877833E0	2,799602449E-1	9,841679573E0	6,939185411E-2	9,845905229E0
1,669073875E0	2,105683982E-1	9,934999466E0	9,332008660E-2	9,937668845E0
1,670269917E0	1,483550072E-1	1,003071213E1	1,220339537E-1	1,003255138E1
1,671465958E0	1,004985496E-1	1,011446095E1	1,411765367E-1	1,011594538E1
1,672662000E0	5,024927482E-2	1,020299530E1	1,579262912E-1	1,020434117E1
1,673857990E0	0,000000000E0	1,028195858E1	1,770688742E-1	1,028348315E1
1,675054031E0	-4,546362907E-2	1,034895802E1	1,890329868E-1	1,035078415E1
1,676250073E0	-1,052841991E-1	1,041356373E1	2,105683982E-1	1,041622452E1
1,677446115E0	-1,627119333E-1	1,048774147E1	2,368894368E-1	1,049167827E1
1,678642156E0	-2,105683982E-1	1,055234814E1	2,584248483E-1	1,055761212E1
1,679838146E0	-2,536391914E-1	1,060499001E1	2,871387303E-1	1,061190815E1
1,681034188E0	-2,991028428E-1	1,065284634E1	3,206382394E-1	1,066186693E1
1,682230229E0	-3,445664644E-1	1,071745300E1	3,517449200E-1	1,072875806E1
1,683426271E0	-3,852444589E-1	1,078205872E1	3,900300860E-1	1,079598661E1
1,684622313E0	-4,307080805E-1	1,083709335E1	4,331009090E-1	1,085429308E1
1,685818302E0	-4,618147612E-1	1,089212894E1	4,761717021E-1	1,091230889E1
1,687014344E0	-4,761717021E-1	1,095912743E1	5,144568682E-1	1,098152445E1
1,688210385E0	-4,881358147E-1	1,102612686E1	5,503492355E-1	1,105063955E1
1,689406427E0	-4,977070987E-1	1,108833981E1	5,886343718E-1	1,111510155E1
1,690602469E0	-4,929214716E-1	1,114816093E1	6,293123364E-1	1,117678388E1
1,691798458E0	-4,785645306E-1	1,121276665E1	6,723831892E-1	1,124309829E1
1,692994500E0	-4,570291340E-1	1,128455162E1	7,154539824E-1	1,131644181E1
1,694190542E0	-4,163511395E-1	1,135872936E1	7,680960894E-1	1,139228040E1
1,695386583E0	-3,661018610E-1	1,143769264E1	8,255237937E-1	1,147328781E1
1,696582625E0	-3,086741269E-1	1,151426220E1	8,781659007E-1	1,155182622E1
1,697778615E0	-2,440679073E-1	1,159083271E1	9,308080077E-1	1,163070830E1
1,698974656E0	-1,722832322E-1	1,165783215E1	9,810572863E-1	1,170030791E1
1,700170698E0	-1,100698411E-1	1,173440266E1	1,028913736E0	1,177993992E1
1,701366740E0	-5,742774159E-2	1,181815147E1	1,067198873E0	1,186637753E1
1,702562781E0	-1,196411345E-2	1,190190029E1	1,098305583E0	1,195247459E1
1,703758771E0	1,435693540E-2	1,198325539E1	1,115055323E0	1,203503071E1
1,704954813E0	2,871387079E-2	1,205504036E1	1,100698471E0	1,210522035E1
1,706150854E0	4,067798331E-2	1,212443256E1	1,076770186E0	1,217222057E1
1,707346896E0	4,307080805E-2	1,219382381E1	1,052842021E0	1,223926757E1
1,708542938E0	3,349951655E-2	1,225603771E1	1,007378340E0	1,229741411E1
1,709738927E0	2,392822690E-2	1,229432297E1	9,403793216E-1	1,233025803E1
1,710934969E0	1,196411345E-2	1,232782269E1	8,662018180E-1	1,235822240E1
1,712131010E0	-2,632104978E-2	1,235653591E1	7,920243144E-1	1,238192130E1
1,713327052E0	-7,896314561E-2	1,237089348E1	7,010970116E-1	1,239099583E1
1,714523094E0	-1,339980662E-1	1,237807178E1	5,958128572E-1	1,239312751E1
1,715719083E0	-1,866401732E-1	1,238525009E1	4,881358147E-1	1,239627085E1
1,716915125E0	-2,392822653E-1	1,239003563E1	3,900300860E-1	1,239848226E1
1,718111167E0	-3,158525825E-1	1,239003563E1	3,062812984E-1	1,239784473E1
1,719307208E0	-3,876372576E-1	1,239482117E1	2,177468538E-1	1,240279275E1
1,720503250E0	-4,618147612E-1	1,240678501E1	1,100698411E-1	1,241586495E1
1,721699240E0	-5,647061467E-1	1,241157150E1	2,392822644E-3	1,242441169E1
1,722895281E0	-6,675975323E-1	1,240917778E1	-1,076770201E-1	1,242758923E1
1,724091323E0	-7,704889178E-1	1,241396427E1	-1,986042857E-1	1,243943752E1
1,725287365E0	-8,829515576E-1	1,242832088E1	-2,727817893E-1	1,246263108E1
1,726483406E0	-9,810572863E-1	1,245464230E1	-3,517449200E-1	1,249817237E1
1,727679396E0	-1,083948612E0	1,247856998E1	-4,091726840E-1	1,253224145E1
1,728875438E0	-1,191625714E0	1,250010586E1	-4,546363056E-1	1,256500348E1
1,730071479E0	-1,289731383E0	1,251924801E1	-4,929214716E-1	1,259515579E1
1,731267521E0	-1,385444283E0	1,254796219E1	-5,144568682E-1	1,263469338E1
1,732463510E0	-1,471585870E0	1,258864021E1	-5,264210105E-1	1,268528858E1
1,733659552E0	-1,545763373E0	1,264128208E1	-5,312066078E-1	1,274651237E1
1,734855594E0	-1,617548108E0	1,268674564E1	-5,264210105E-1	1,280027718E1
1,736051635E0	-1,684547186E0	1,272263813E1	-5,000999570E-1	1,284341544E1
1,737247677E0	-1,746760488E0	1,276331615E1	-4,785645306E-1	1,289117665E1
1,738443719E0	-1,797009826E0	1,278724384E1	-4,594219327E-1	1,292106489E1
1,739639708E0	-1,842473388E0	1,280877972E1	-4,331009090E-1	1,294786169E1
1,740835750E0	-1,873580098E0	1,284227943E1	-4,043870270E-1	1,298452819E1
1,742031792E0	-1,892722726E0	1,288056469E1	-3,661018610E-1	1,302403074E1
1,743227833E0	-1,919043779E0	1,290927792E1	-3,278166950E-1	1,305525370E1
1,744423875E0	-1,942971945E0	1,292124271E1	-2,919243574E-1	1,306976943E1
1,745619865E0	-1,947757602E0	1,292124271E1	-2,584248483E-1	1,306977645E1
1,746815906E0	-1,942971945E0	1,292602825E1	-2,249253243E-1	1,307317627E1
1,748011948E0	-1,935793519E0	1,293320656E1	-1,986042857E-1	1,307878328E1
1,749207990E0	-1,928615093E0	1,292842102E1	-1,674975902E-1	1,307255452E1
1,750404031E0	-1,916650891E0	1,290449238E1	-1,268195957E-1	1,304666844E1
1,751600021E0	-1,887937069E0	1,288056469E1	-9,571290761E-2	1,301854116E1
1,752796063E0	-1,864008784E0	1,285424328E1	-8,135596663E-2	1,298894599E1
1,753992104E0	-1,844866276E0	1,282313633E1	-6,221338734E-2	1,295531657E1
1,755188146E0	-1,816152334E0	1,277528000E1	-4,067798331E-2	1,290379181E1
1,756384188E0	-1,797009826E0	1,272503090E1	-2,632104978E-2	1,285131699E1
1,757580177E0	-1,794616938E0	1,267478180E1	-7,178467698E-3	1,280120288E1
1,758776219E0	-1,792224169E0	1,261735344E1	2,632104978E-2	1,274403265E1
1,759972260E0	-1,787438512E0	1,255992603E1	5,982056633E-2	1,268661724E1
1,761168302E0	-1,787438512E0	1,250728416E1	9,571290761E-2	1,263472416E1
1,762364344E0	-1,785045743E0	1,245942783E1	1,339980662E-1	1,258736214E1
1,763560333E0	-1,782652855E0	1,240439224E1	1,746760458E-1	1,253304870E1
1,764756375E0	-1,770688772E0	1,234935760E1	2,249253243E-1	1,247768261E1
1,765952417E0	-1,765903115E0	1,229432297E1	2,751746178E-1	1,242354668E1
1,767148458E0	-1,763510346E0	1,223210907E1	3,206382394E-1	1,236273715E1
1,768344500E0	-1,749153376E0	1,217228889E1	3,756731451E-1	1,230305998E1
1,769540490E0	-1,725225091E0	1,211964703E1	4,283152521E-1	1,224931425E1
1,770736531E0	-1,698904037E0	1,206939697E1	4,761717021E-1	1,219767837E1
1,771932573E0	-1,674975872E0	1,202393341E1	5,288137794E-1	1,215154981E1
1,773128615E0	-1,653440475E0	1,197129154E1	5,742774606E-1	1,209857352E1
1,774324656E0	-1,619940877E0	1,192582798E1	6,173482537E-1	1,205117008E1
1,775520646E0	-1,579262972E0	1,188514996E1	6,675975323E-1	1,200818669E1
1,776716688E0	-1,533799291E0	1,185165024E1	7,082754970E-1	1,197145805E1
1,777912729E0	-1,505085468E0	1,184207916E1	7,465606928E-1	1,196066361E1
1,779108771E0	-1,471585870E0	1,183490086E1	7,824530005E-1	1,195168088E1
1,780304813E0	-1,440479279E0	1,182054424E1	8,159525394E-1	1,193591326E1
1,781500802E0	-1,416550994E0	1,181575775E1	8,518448472E-1	1,193081672E1
1,782696844E0	-1,392622828E0	1,180857944E1	8,781659007E-1	1,192279842E1
1,783892885E0	-1,371087432E0	1,179900837E1	8,973084688E-1	1,191224755E1
1,785088927E0	-1,347159147E0	1,179661560E1	9,044869542E-1	1,190768970E1
1,786284969E0	-1,325623751E0	1,181575775E1	9,020941257E-1	1,192405901E1
1,787480958E0	-1,316052437E0	1,184447193E1	8,949156404E-1	1,195091559E1
1,788677000E0	-1,311266780E0	1,186361504E1	8,829515576E-1	1,196847466E1
1,789873042E0	-1,306481123E0	1,188275719E1	8,590233326E-1	1,198518804E1
1,791069083E0	-1,301695466E0	1,189950657E1	8,207381964E-1	1,199859487E1
1,792265125E0	-1,299302697E0	1,189950657E1	7,776673436E-1	1,199546625E1
1,793461115E0	-1,296909928E0	1,189232826E1	7,322037220E-1	1,198522295E1
1,794657156E0	-1,296909928E0	1,189232826E1	6,747759581E-1	1,198185167E1
1,795853198E0	-1,301695466E0	1,188754272E1	6,053841114E-1	1,197391219E1
1,797049240E0	-1,296909928E0	1,188514996E1	5,312066078E-1	1,196749536E1
1,798245281E0	-1,289731383E0	1,188754272E1	4,642075896E-1	1,196630970E1
1,799441271E0	-1,280160069E0	1,187557888E1	3,972085714E-1	1,195098147E1
1,800637313E0	-1,265803218E0	1,185165024E1	3,254238665E-1	1,192349663E1
1,801833354E0	-1,244267821E0	1,182772255E1	2,464607358E-1	1,189554396E1
1,803029396E0	-1,215553880E0	1,181097221E1	1,674975902E-1	1,187453963E1
1,804225438E0	-1,196411371E0	1,179422283E1	1,004985496E-1	1,185517576E1
1,805421427E0	-1,172483087E0	1,175593758E1	3,110669367E-2	1,181430288E1
1,806617469E0	-1,143769264E0	1,171286678E1	-4,785645381E-2	1,176867650E1
1,807813510E0	-1,122233868E0	1,166740322E1	-1,100698411E-1	1,172176702E1
1,809009552E0	-1,098305583E0	1,160997581E1	-1,603191197E-1	1,166291198E1
1,810205542E0	-1,079162955E0	1,155015469E1	-2,105683982E-1	1,160237066E1
1,811401583E0	-1,052842021E0	1,149990559E1	-2,560320199E-1	1,155083794E1
1,812597625E0	-1,024128079E0	1,145444202E1	-2,895315289E-1	1,150377803E1
1,813793667E0	-1,002592683E0	1,141376400E1	-3,110669553E-1	1,146193541E1
1,814989708E0	-9,810572863E-1	1,137547874E1	-3,326023519E-1	1,142254851E1
1,816185698E0	-9,619147182E-1	1,133719349E1	-3,445664644E-1	1,138314377E1
1,817381740E0	-9,308080077E-1	1,130130100E1	-3,493520916E-1	1,134494843E1
1,818577781E0	-8,973084688E-1	1,126301575E1	-3,637090325E-1	1,130455530E1
1,819773823E0	-8,614161611E-1	1,121994495E1	-3,804588020E-1	1,125939392E1
1,820969865E0	-8,279166222E-1	1,117208862E1	-3,948157430E-1	1,120967839E1
1,822165854E0	-7,920243144E-1	1,112901783E1	-4,091726840E-1	1,116466581E1
1,823361896E0	-7,513462901E-1	1,108355427E1	-4,187439680E-1	1,111688099E1
1,824557938E0	-7,178468108E-1	1,103091240E1	-4,139583111E-1	1,106199321E1
1,825753979E0	-6,939185858E-1	1,099501991E1	-4,187439680E-1	1,102485067E1
1,826950021E0	-6,580262184E-1	1,096152020E1	-4,354937077E-1	1,098988527E1
1,828146010E0	-6,221339107E-1	1,091844940E1	-4,546363056E-1	1,094560561E1
1,829342052E0	-6,053841114E-1	1,088255692E1	-4,642075896E-1	1,090926320E1
1,830538094E0	-5,766702294E-1	1,083948612E1	-4,642075896E-1	1,086473638E1
1,831734135E0	-5,383850932E-1	1,080120182E1	-4,642075896E-1	1,082456964E1
1,832930177E0	-5,240281820E-1	1,077488041E1	-4,761717021E-1	1,079811988E1
1,834126219E0	-5,240281820E-1	1,075813103E1	-4,905286431E-1	1,078205023E1
1,835322208E0	-5,216353536E-1	1,073659515E1	-5,024927258E-1	1,076099800E1
1,836518250E0	-5,192425251E-1	1,070548820E1	-5,120640397E-1	1,073029823E1
1,837714292E0	-5,144568682E-1	1,066720295E1	-5,144568682E-1	1,069198534E1
1,838910333E0	-5,120640397E-1	1,062891865E1	-5,168496966E-1	1,065379063E1
1,840106323E0	-5,192425251E-1	1,059541893E1	-5,216353536E-1	1,062095187E1
1,841302365E0	-5,312066078E-1	1,056431198E1	-5,216353536E-1	1,059051328E1
1,842498406E0	-5,407779217E-1	1,053559780E1	-5,144568682E-1	1,056200396E1
1,843694448E0	-5,503492355E-1	1,051645565E1	-5,096712112E-1	1,054317260E1
1,844890490E0	-5,647061467E-1	1,050449181E1	-5,048855543E-1	1,053176863E1
1,846086531E0	-5,742774606E-1	1,048774147E1	-5,048855543E-1	1,051558012E1
1,847282521E0	-5,862415433E-1	1,046142101E1	-4,977070987E-1	1,048964828E1
1,848478563E0	-5,982056856E-1	1,043509960E1	-4,785645306E-1	1,046318201E1
1,849674604E0	-6,053841114E-1	1,041356373E1	-4,689932466E-1	1,044168349E1
1,850870646E0	-6,293123364E-1	1,039442158E1	-4,522434771E-1	1,042327003E1
1,852066635E0	-6,747759581E-1	1,038245773E1	-4,354937077E-1	1,041347233E1
1,853262677E0	-7,082754970E-1	1,036570740E1	-4,331009090E-1	1,039889996E1
1,854458719E0	-7,322037220E-1	1,034177971E1	-4,307080805E-1	1,037661020E1
1,855654760E0	-7,513462901E-1	1,032742214E1	-4,259224236E-1	1,036347332E1
1,856850802E0	-7,824530005E-1	1,031306553E1	-4,115654826E-1	1,035089076E1
1,858046792E0	-8,183453679E-1	1,029870892E1	-3,900300860E-1	1,033853074E1
1,859242833E0	-8,494520187E-1	1,028435135E1	-3,684946895E-1	1,032594982E1
1,860438875E0	-8,925228715E-1	1,026042366E1	-3,445664644E-1	1,030493167E1
1,861634917E0	-9,355936646E-1	1,023170948E1	-3,158525825E-1	1,027924984E1
1,862830958E0	-9,667003751E-1	1,019820976E1	-2,895315289E-1	1,024801544E1
1,864026948E0	-9,906286001E-1	1,016710377E1	-2,656033039E-1	1,021870291E1
1,865222990E0	-1,021735311E0	1,014796066E1	-2,488535494E-1	1,020230252E1
1,866419031E0	-1,050449133E0	1,013121128E1	-2,321037948E-1	1,018816753E1
1,867615073E0	-1,083948612E0	1,010728264E1	-2,153540403E-1	1,016752105E1
1,868811115E0	-1,112662554E0	1,007617569E1	-2,105683982E-1	1,013960914E1
1,870007104E0	-1,129412293E0	1,003549862E1	-2,009970993E-1	1,010085167E1
1,871203146E0	-1,146162033E0	9,992427826E0	-1,890329868E-1	1,005972339E1
1,872399188E0	-1,155733347E0	9,956535339E0	-1,818545163E-1	1,002503798E1
1,873595229E0	-1,174875975E0	9,920642853E0	-1,722832322E-1	9,991454833E0
1,874791271E0	-1,198804140E0	9,877572060E0	-1,674975902E-1	9,951463038E0
1,875987260E0	-1,215553880E0	9,834501266E0	-1,603191197E-1	9,910635127E0
1,877183302E0	-1,222732425E0	9,801001549E0	-1,363908947E-1	9,877920248E0
1,878379344E0	-1,225125194E0	9,769894600E0	-1,148554832E-1	9,847078959E0
1,879575385E0	-1,246660590E0	9,736394882E0	-1,028913707E-1	9,816421678E0
1,880771427E0	-1,270588875E0	9,705288887E0	-8,374879509E-2	9,788464759E0
1,881967417E0	-1,287338614E0	9,681360245E0	-5,742774159E-2	9,766743308E0
1,883163458E0	-1,299302697E0	9,657432556E0	-4,067798331E-2	9,744529018E0
1,884359500E0	-1,301695466E0	9,631111145E0	-2,871387079E-2	9,718720979E0
1,885555542E0	-1,301695466E0	9,602396965E0	-1,914258115E-2	9,690242773E0
1,886751583E0	-1,301695466E0	9,566504478E0	-9,571290575E-3	9,654662637E0
1,887947573E0	-1,311266780E0	9,533005714E0	7,178467698E-3	9,622768315E0
1,889143615E0	-1,325623751E0	9,504291534E0	2,871387079E-2	9,596335779E0
1,890339656E0	-1,337587833E0	9,466006279E0	4,785645381E-2	9,560162463E0
1,891535698E0	-1,356730461E0	9,427721024E0	6,460621208E-2	9,525062478E0
1,892731740E0	-1,378265858E0	9,401400566E0	8,614161611E-2	9,502282345E0
1,893927729E0	-1,395015597E0	9,382257462E0	1,172483116E-1	9,486125171E0
1,895123771E0	-1,409372568E0	9,360722542E0	1,411765367E-1	9,467279882E0
1,896319813E0	-1,433300734E0	9,327222824E0	1,603191197E-1	9,438068596E0
1,897515854E0	-1,440479279E0	9,291330338E0	1,698904037E-1	9,403864245E0
1,898711896E0	-1,428515077E0	9,257830620E0	1,818545163E-1	9,369159737E0
1,899907885E0	-1,421336651E0	9,226723671E0	2,033899277E-1	9,337772488E0
1,901103927E0	-1,416550994E0	9,200403214E0	2,225325108E-1	9,311474466E0
1,902299969E0	-1,409372568E0	9,190832138E0	2,249253243E-1	9,300984777E0
1,903496010E0	-1,392622828E0	9,171689034E0	2,177468538E-1	9,279369147E0
1,904692052E0	-1,375872970E0	9,128618240E0	2,105683982E-1	9,234123481E0
1,905888042E0	-1,361516118E0	9,095118523E0	2,081755698E-1	9,198817541E0
1,907084083E0	-1,344766378E0	9,071190834E0	2,033899277E-1	9,172582364E0
1,908280125E0	-1,328016520E0	9,037691116E0	1,866401732E-1	9,136647260E0
1,909476167E0	-1,316052437E0	9,004191399E0	1,698904037E-1	9,101446012E0
1,910672208E0	-1,296909928E0	8,973084450E0	1,579262912E-1	9,067698750E0
1,911868198E0	-1,280160069E0	8,944371223E0	1,483550072E-1	9,036735893E0
1,913064240E0	-1,265803218E0	8,915657043E0	1,435693651E-1	9,006209550E0
1,914260229E0	-1,256231904E0	8,894122124E0	1,316052526E-1	8,983365009E0
1,915456219E0	-1,249053478E0	8,870193481E0	1,292124242E-1	8,958636215E0
1,916652365E0	-1,237089276E0	8,846264839E0	1,387837082E-1	8,933423330E0
1,917848354E0	-1,225125194E0	8,824729919E0	1,483550072E-1	8,910600378E0
1,919044396E0	-1,210768223E0	8,807980537E0	1,603191197E-1	8,892254104E0
1,920240438E0	-1,198804140E0	8,791230202E0	1,770688742E-1	8,874357059E0
1,921436479E0	-1,189232826E0	8,774480820E0	2,057827413E-1	8,857095173E0
1,922632521E0	-1,177268744E0	8,748159409E0	2,416750938E-1	8,830326244E0
1,923828510E0	-1,160519004E0	8,714659691E0	2,703889608E-1	8,795749432E0
1,925024552E0	-1,146162033E0	8,688339233E0	2,967100143E-1	8,768635177E0
1,926220594E0	-1,122233868E0	8,666803360E0	3,278166950E-1	8,745304633E0
1,927416635E0	-1,095912814E0	8,650053978E0	3,565305769E-1	8,726486852E0
1,928612677E0	-1,081555843E0	8,635697365E0	3,876372576E-1	8,711790554E0
1,929808667E0	-1,067198873E0	8,618947029E0	4,211367965E-1	8,694970818E0
1,931004708E0	-1,055234790E0	8,597412109E0	4,642075896E-1	8,674359004E0
1,932200750E0	-1,038485050E0	8,578269005E0	4,977070987E-1	8,655221700E0
1,933396792E0	-1,012163997E0	8,563912392E0	5,240281820E-1	8,639425730E0
1,934592781E0	-9,810572863E-1	8,544769287E0	5,527420044E-1	8,618647185E0
1,935788823E0	-9,523434043E-1	8,523234367E0	5,862415433E-1	8,596287640E0
1,936984865E0	-9,332008362E-1	8,511270523E0	6,077769399E-1	8,583820975E0
1,938180906E0	-9,116654396E-1	8,487341881E0	6,173482537E-1	8,558459262E0
1,939376948E0	-8,877372146E-1	8,453842163E0	6,317051649E-1	8,523765371E0
1,940572938E0	-8,614161611E-1	8,427521706E0	6,460621357E-1	8,496031790E0
1,941768979E0	-8,374879360E-1	8,405985832E0	6,532405615E-1	8,472821672E0
1,942965021E0	-8,231309652E-1	8,389236450E0	6,508477330E-1	8,454610315E0
1,944161063E0	-8,039883971E-1	8,374878883E0	6,436693072E-1	8,437967992E0
1,945357104E0	-7,944171429E-1	8,365307808E0	6,340979934E-1	8,426835324E0
1,946553094E0	-7,824530005E-1	8,355736732E0	6,293123364E-1	8,415854268E0
1,947749135E0	-7,561319470E-1	8,331808090E0	6,149554253E-1	8,388619180E0
1,948945177E0	-7,345965505E-1	8,312665939E0	5,934200287E-1	8,366133781E0
1,950141219E0	-7,226324677E-1	8,295916557E0	5,718846321E-1	8,346944425E0
1,951337260E0	-7,106683254E-1	8,276773453E0	5,527420044E-1	8,325596194E0
1,952533250E0	-7,010970116E-1	8,269595146E0	5,264210105E-1	8,315940114E0
1,953729292E0	-7,058826685E-1	8,262416840E0	4,977070987E-1	8,307437314E0
1,954925333E0	-7,082754970E-1	8,262416840E0	4,833501875E-1	8,306793221E0
1,956121375E0	-6,963114142E-1	8,260024071E0	4,713860750E-1	8,302713536E0
1,957317417E0	-6,867401004E-1	8,255238533E0	4,666004181E-1	8,296884424E0
1,958513406E0	-6,843472719E-1	8,250452042E0	4,642075896E-1	8,291789841E0
1,959709448E0	-6,771687865E-1	8,248059273E0	4,594219327E-1	8,288552820E0
1,960905490E0	-6,652047038E-1	8,252845764E0	4,522434771E-1	8,291953007E0
1,962101531E0	-6,580262184E-1	8,252845764E0	4,402793646E-1	8,290736254E0
1,963297573E0	-6,580262184E-1	8,255238533E0	4,259224236E-1	8,292368278E0
1,964493563E0	-6,556333899E-1	8,257631302E0	4,139583111E-1	8,293955109E0
1,965689604E0	-6,508477330E-1	8,250452042E0	3,972085714E-1	8,285610196E0
1,966885646E0	-6,364908218E-1	8,238488197E0	3,900300860E-1	8,272238622E0
1,968081688E0	-6,173482537E-1	8,219346046E0	3,828516304E-1	8,251384349E0
1,969277729E0	-6,053841114E-1	8,207381248E0	3,661018610E-1	8,237816911E0
1,970473719E0	-5,934200287E-1	8,190631866E0	3,469592929E-1	8,219426893E0
1,971669760E0	-5,910272002E-1	8,173882484E0	3,349951804E-1	8,202066190E0
1,972865802E0	-5,910272002E-1	8,157132149E0	3,230310678E-1	8,184892615E0
1,974061844E0	-5,886343718E-1	8,145168304E0	2,991028428E-1	8,171885929E0
1,975257885E0	-5,862415433E-1	8,126026154E0	2,727817893E-1	8,151710870E0
1,976453875E0	-5,790630579E-1	8,094919205E0	2,488535494E-1	8,119418640E0
1,977649917E0	-5,647061467E-1	8,068597794E0	2,273181528E-1	8,091528714E0
1,978845958E0	-5,503492355E-1	8,049455643E0	2,033899277E-1	8,070810857E0
1,980042000E0	-5,527420044E-1	8,037490845E0	1,746760458E-1	8,058367981E0
1,981238042E0	-5,527420044E-1	8,018348694E0	1,387837082E-1	8,038575770E0
1,982434083E0	-5,407779217E-1	7,996813297E0	1,100698411E-1	8,015833022E0
1,983630073E0	-5,312066078E-1	7,984848976E0	8,614161611E-2	8,002962827E0
1,984826115E0	-5,335994363E-1	7,984848976E0	5,024927482E-2	8,002816162E0
1,986022156E0	-5,264210105E-1	7,972885132E0	2,153540403E-2	7,990274099E0
1,987218198E0	-5,072783828E-1	7,951349735E0	0,000000000E0	7,967514918E0
1,988414188E0	-5,096712112E-1	7,939385414E0	-2,392822690E-2	7,955763826E0
1,989610229E0	-5,120640397E-1	7,939385414E0	-5,503492057E-2	7,956071843E0
1,990806271E0	-5,144568682E-1	7,944170952E0	-1,004985496E-1	7,961445719E0
1,992002313E0	-5,120640397E-1	7,939385414E0	-1,531406492E-1	7,957355239E0
1,993198354E0	-4,977070987E-1	7,925028801E0	-2,057827413E-1	7,943307900E0
1,994394344E0	-4,857429862E-1	7,898707390E0	-2,560320199E-1	7,917769703E0
1,995590385E0	-4,689932466E-1	7,865208149E0	-3,086741269E-1	7,885222483E0
1,996786427E0	-4,450650215E-1	7,834101200E0	-3,661018610E-1	7,855269254E0
1,997982469E0	-4,163511395E-1	7,800601959E0	-4,211367965E-1	7,823048984E0
