"Time (s)"	"Acceleration x (m/s^2)"	"Acceleration y (m/s^2)"	"Acceleration z (m/s^2)"	"Absolute acceleration (m/s^2)"
3,654579500E-2	4,187439680E-1	9,265008926E0	1,038485050E0	9,332426700E0
3,774173300E-2	4,283152521E-1	9,260223389E0	9,954141974E-1	9,323413569E0
3,893772200E-2	4,354937077E-1	9,243474007E0	9,690931439E-1	9,304332754E0
4,013371200E-2	4,474578202E-1	9,238688469E0	9,499505758E-1	9,298171284E0
4,132970200E-2	4,522434771E-1	9,243474007E0	9,475577474E-1	9,302913606E0
4,252569100E-2	4,498506486E-1	9,245866776E0	9,571290612E-1	9,306154634E0
4,372162900E-2	4,498506486E-1	9,245866776E0	9,690931439E-1	9,307392737E0
4,491761800E-2	4,498506486E-1	9,245866776E0	9,858429432E-1	9,309151645E0
4,611360800E-2	4,570291340E-1	9,257830620E0	1,014556766E0	9,324463998E0
4,730959700E-2	4,522434771E-1	9,286544800E0	1,057627559E0	9,357511129E0
4,850558700E-2	4,450650215E-1	9,308079720E0	1,095912814E0	9,382934287E0
4,970152500E-2	4,522434771E-1	9,312865257E0	1,131805062E0	9,392282266E0
5,089746200E-2	4,642075896E-1	9,317651749E0	1,158126116E0	9,400817991E0
5,209350400E-2	4,737788737E-1	9,317651749E0	1,167697430E0	9,402479344E0
5,328949300E-2	4,761717021E-1	9,317651749E0	1,162911773E0	9,402007094E0
5,448548300E-2	4,809573591E-1	9,336793900E0	1,146162033E0	9,419168101E0
5,568147200E-2	4,953143001E-1	9,370293617E0	1,115055323E0	9,449396124E0
5,687746200E-2	5,024927258E-1	9,401400566E0	1,074377418E0	9,475923089E0
5,807340000E-2	5,024927258E-1	9,432506561E0	1,038485050E0	9,502795913E0
5,926938900E-2	5,096712112E-1	9,458827972E0	9,954141974E-1	9,524706861E0
6,046537900E-2	5,264210105E-1	9,482755661E0	9,475577474E-1	9,544508353E0
6,166136800E-2	5,312066078E-1	9,513862610E0	9,044869542E-1	9,571512883E0
6,285735800E-2	5,192425251E-1	9,540184021E0	8,494520187E-1	9,591991070E0
6,405329500E-2	5,120640397E-1	9,566504478E0	7,968099117E-1	9,613278502E0
6,524928500E-2	4,905286431E-1	9,597611427E0	7,513462901E-1	9,639464960E0
6,644527500E-2	4,522434771E-1	9,635896683E0	6,987041831E-1	9,671774221E0
6,764126400E-2	4,283152521E-1	9,683753014E0	6,484549642E-1	9,714886527E0
6,883720200E-2	4,235295951E-1	9,726823807E0	6,005984545E-1	9,754547513E0
7,003319100E-2	4,019941986E-1	9,765109062E0	5,670989752E-1	9,789818976E0
7,122918100E-2	3,780659735E-1	9,817750931E0	5,479564071E-1	9,840295902E0
7,242517000E-2	3,565305769E-1	9,865608215E0	5,312066078E-1	9,886329955E0
7,362116000E-2	3,278166950E-1	9,901499748E0	5,072783828E-1	9,919903851E0
7,481715000E-2	3,086741269E-1	9,946963310E0	4,833501875E-1	9,963482635E0
7,601793100E-2	3,014956415E-1	9,985248566E0	4,666004181E-1	1,000069020E1
7,720907700E-2	2,871387303E-1	1,001396275E1	4,426721931E-1	1,002785407E1
7,840506600E-2	2,799602449E-1	1,004028416E1	4,211367965E-1	1,005301148E1
7,960105600E-2	2,823530734E-1	1,007617569E1	3,972085714E-1	1,008795393E1
8,079704500E-2	2,751746178E-1	1,010488987E1	3,708875179E-1	1,011543760E1
8,199293100E-2	2,512463629E-1	1,012164021E1	3,469592929E-1	1,013070116E1
8,318881600E-2	2,392822653E-1	1,014078236E1	3,278166950E-1	1,014890076E1
8,438496200E-2	2,321037948E-1	1,015513897E1	3,230310678E-1	1,016292619E1
8,558095200E-2	2,177468538E-1	1,017667484E1	3,158525825E-1	1,018390335E1
8,677730600E-2	2,033899277E-1	1,019820976E1	3,062812984E-1	1,020483503E1
8,797293100E-2	1,890329868E-1	1,018863869E1	2,991028428E-1	1,019478074E1
8,916886800E-2	1,818545163E-1	1,017667484E1	2,919243574E-1	1,018248505E1
9,036485800E-2	1,651047617E-1	1,018146038E1	2,919243574E-1	1,018698262E1
9,156084700E-2	1,507478207E-1	1,018624592E1	2,895315289E-1	1,019147484E1
9,275683700E-2	1,435693651E-1	1,019103146E1	2,703889608E-1	1,019562870E1
9,395282700E-2	1,339980662E-1	1,018146038E1	2,536391914E-1	1,018550067E1
9,514881600E-2	1,339980662E-1	1,016231823E1	2,464607358E-1	1,016618956E1
9,634475400E-2	1,220339537E-1	1,016231823E1	2,368894368E-1	1,016581136E1
9,754074300E-2	1,052841991E-1	1,016231823E1	2,273181528E-1	1,016540556E1
9,873673300E-2	1,052841991E-1	1,015513897E1	2,201396823E-1	1,015807037E1
9,993272200E-2	9,571290761E-2	1,013599682E1	2,129612118E-1	1,013868556E1
1,011287120E-1	8,135596663E-2	1,012164021E1	2,105683982E-1	1,012415716E1
1,023247020E-1	7,896314561E-2	1,010488987E1	2,129612118E-1	1,010744216E1
1,035205350E-1	8,135596663E-2	1,008096218E1	2,177468538E-1	1,008364175E1
1,047163680E-1	8,374879509E-2	1,005464077E1	2,153540403E-1	1,005729547E1
1,059126180E-1	1,004985496E-1	1,003310490E1	2,129612118E-1	1,003586799E1
1,071086080E-1	1,052841991E-1	1,001396275E1	2,153540403E-1	1,001683143E1
1,083045970E-1	9,810572863E-2	1,000678444E1	2,249253243E-1	1,000979275E1
1,095005350E-1	1,028913707E-1	9,999606133E0	2,392822653E-1	1,000299782E1
1,106965250E-1	1,124626622E-1	9,992427826E0	2,608176768E-1	9,996463753E0
1,118925140E-1	1,124626622E-1	9,980463028E0	2,943171859E-1	9,985435029E0
1,130885040E-1	1,148554832E-1	9,966106415E0	3,230310678E-1	9,972001701E0
1,142843890E-1	1,196411327E-1	9,958928108E0	3,565305769E-1	9,966026145E0
1,154802750E-1	1,268195957E-1	9,942177773E0	3,852444589E-1	9,950446993E0
1,166764200E-1	1,339980662E-1	9,934999466E0	4,115654826E-1	9,944423363E0
1,178724100E-1	1,411765367E-1	9,932606697E0	4,474578202E-1	9,943682674E0
1,190684000E-1	1,483550072E-1	9,927821159E0	4,809573591E-1	9,940571521E0
1,202643890E-1	1,531406492E-1	9,911071777E0	5,048855543E-1	9,925104798E0
1,214603270E-1	1,531406492E-1	9,887143135E0	5,240281820E-1	9,902204652E0
1,226562120E-1	1,459621787E-1	9,875179291E0	5,312066078E-1	9,890533426E0
1,238520970E-1	1,435693651E-1	9,863214493E0	5,407779217E-1	9,879071467E0
1,250482950E-1	1,435693651E-1	9,846465111E0	5,407779217E-1	9,862349015E0
1,262442850E-1	1,339980662E-1	9,822537422E0	5,431707501E-1	9,838456757E0
1,274402750E-1	1,268195957E-1	9,803394318E0	5,431707501E-1	9,819249351E0
1,286362120E-1	1,268195957E-1	9,801001549E0	5,455635786E-1	9,816993134E0
1,298322020E-1	1,196411327E-1	9,812965393E0	5,503492355E-1	9,829114308E0
1,310281910E-1	1,076770201E-1	9,824930191E0	5,455635786E-1	9,840654817E0
1,322241810E-1	9,810572863E-2	9,827322960E0	5,407779217E-1	9,842679617E0
1,334201700E-1	8,853443712E-2	9,834501266E0	5,503492355E-1	9,850286178E0
1,346161080E-1	8,135596663E-2	9,848857880E0	5,694918036E-1	9,865644492E0
1,358120970E-1	7,896314561E-2	9,858428955E0	5,742774606E-1	9,875457014E0
1,370079830E-1	7,896314561E-2	9,868000984E0	5,766702294E-1	9,885151853E0
1,382038680E-1	7,178468257E-2	9,882357597E0	5,838487148E-1	9,899849698E0
1,394000660E-1	6,221338734E-2	9,896714211E0	5,766702294E-1	9,913696143E0
1,405960560E-1	6,939185411E-2	9,901499748E0	5,599204898E-1	9,917561366E0
1,417919930E-1	6,221338734E-2	9,887143135E0	5,599204898E-1	9,903180339E0
1,429884000E-1	4,785645381E-2	9,879964828E0	5,670989752E-1	9,896342582E0
1,441839720E-1	5,503492057E-2	9,882357597E0	5,575276613E-1	9,898224973E0
1,453799620E-1	5,982056633E-2	9,868000984E0	5,503492355E-1	9,883516895E0
1,465759520E-1	6,460621208E-2	9,844072342E0	5,503492355E-1	9,859656105E0
1,477718370E-1	8,614161611E-2	9,832108498E0	5,479564071E-1	9,847742590E0
1,489677220E-1	1,076770201E-1	9,822537422E0	5,407779217E-1	9,838001652E0
1,501638680E-1	1,220339537E-1	9,812965393E0	5,312066078E-1	9,828090483E0
1,513598580E-1	1,268195957E-1	9,801001549E0	5,216353536E-1	9,815692437E0
1,525558470E-1	1,268195957E-1	9,789037704E0	5,144568682E-1	9,803367190E0
1,537518370E-1	1,411765367E-1	9,779465675E0	5,120640397E-1	9,793880196E0
1,549477750E-1	1,507478207E-1	9,772287369E0	5,048855543E-1	9,786482246E0
1,561437640E-1	1,483550072E-1	9,769894600E0	4,833501875E-1	9,782968727E0
1,573397540E-1	1,459621787E-1	9,767501831E0	4,522434771E-1	9,779055227E0
1,585357430E-1	1,483550072E-1	9,765109062E0	4,283152521E-1	9,775623671E0
1,597317330E-1	1,411765367E-1	9,760323524E0	4,067798555E-1	9,769816578E0
1,609276700E-1	1,244267747E-1	9,767501831E0	3,948157430E-1	9,776269918E0
1,621236600E-1	1,004985496E-1	9,789037704E0	3,948157430E-1	9,797511858E0
1,633196500E-1	8,135596663E-2	9,803394318E0	4,019941986E-1	9,811970153E0
1,645156390E-1	7,178468257E-2	9,815358162E0	4,163511395E-1	9,824446914E0
1,657116290E-1	6,939185411E-2	9,834501266E0	4,283152521E-1	9,844068485E0
1,669075660E-1	6,221338734E-2	9,858428955E0	4,450650215E-1	9,868666315E0
1,681035560E-1	5,024927482E-2	9,884750366E0	4,666004181E-1	9,895884536E0
1,692995450E-1	3,589234129E-2	9,896714211E0	4,857429862E-1	9,908692481E0
1,704955350E-1	1,196411345E-2	9,901499748E0	5,048855543E-1	9,914370874E0
1,716915250E-1	2,392822644E-3	9,920642853E0	5,312066078E-1	9,934854845E0
1,728875140E-1	0,000000000E0	9,937392235E0	5,670989752E-1	9,953560452E0
1,740834520E-1	-9,571290575E-3	9,946963310E0	5,982056856E-1	9,964939576E0
1,752794410E-1	-1,435693540E-2	9,968499184E0	6,197410822E-1	9,987755559E0
1,764754310E-1	-1,674975827E-2	9,987641335E0	6,340979934E-1	1,000776400E1
1,776714200E-1	-1,674975827E-2	9,994820595E0	6,340979934E-1	1,001492883E1
1,788674100E-1	-1,435693540E-2	9,997213364E0	6,293123364E-1	1,001701129E1
1,800634000E-1	-7,178467698E-3	9,997213364E0	6,269195080E-1	1,001685353E1
1,812593370E-1	-7,178467698E-3	9,994820595E0	6,197410822E-1	1,001401864E1
1,824553270E-1	-1,435693540E-2	9,994820595E0	6,149554253E-1	1,001373132E1
1,836513160E-1	-2,153540403E-2	1,000439167E1	6,029912829E-1	1,002257028E1
1,848473060E-1	-2,392822690E-2	1,001635551E1	5,934200287E-1	1,003394726E1
1,860432950E-1	-1,674975827E-2	1,001635551E1	5,886343718E-1	1,003365082E1
1,872392330E-1	-1,914258115E-2	1,001396275E1	5,862415433E-1	1,003112633E1
1,884352220E-1	-3,349951655E-2	1,000917721E1	5,886343718E-1	1,002652687E1
1,896312120E-1	-4,546362907E-2	1,001396275E1	5,886343718E-1	1,003135122E1
1,908272020E-1	-4,785645381E-2	1,002114105E1	5,982056856E-1	1,003909400E1
1,920231910E-1	-4,785645381E-2	1,001635551E1	6,149554253E-1	1,003532950E1
1,932191810E-1	-4,785645381E-2	1,001396275E1	6,317051649E-1	1,003398184E1
1,944151180E-1	-4,067798331E-2	1,002114105E1	6,436693072E-1	1,004187397E1
1,956111080E-1	-5,024927482E-2	1,002831936E1	6,580262184E-1	1,005001058E1
1,968070970E-1	-7,657032460E-2	1,002592659E1	6,747759581E-1	1,004889992E1
1,980030870E-1	-8,374879509E-2	1,001635551E1	6,843472719E-1	1,004005592E1
1,991990770E-1	-8,374879509E-2	1,001396275E1	6,915257573E-1	1,003816077E1
2,003950140E-1	-8,374879509E-2	1,000678444E1	7,010970116E-1	1,003166415E1
2,015910040E-1	-8,614161611E-2	9,999606133E0	7,058826685E-1	1,002485978E1
2,027869930E-1	-9,092725813E-2	9,997213364E0	7,034898400E-1	1,002234707E1
2,039829830E-1	-9,092725813E-2	9,987641335E0	7,010970116E-1	1,001263123E1
2,051789720E-1	-8,135596663E-2	9,966106415E0	7,010970116E-1	9,991067655E0
2,063749100E-1	-7,417750359E-2	9,944570541E0	7,010970116E-1	9,969529707E0
2,075709000E-1	-7,178468257E-2	9,927821159E0	6,891329288E-1	9,951969162E0
2,087668890E-1	-6,699903309E-2	9,911071777E0	6,652047038E-1	9,933596023E0
2,099628790E-1	-6,699903309E-2	9,889535904E0	6,484549642E-1	9,910999097E0
2,111588680E-1	-6,699903309E-2	9,868000984E0	6,388836503E-1	9,888887936E0
2,123548580E-1	-5,982056633E-2	9,846465111E0	6,388836503E-1	9,867351519E0
2,135507950E-1	-5,264209956E-2	9,832108498E0	6,484549642E-1	9,853609620E0
2,147467850E-1	-5,503492057E-2	9,832108498E0	6,412764788E-1	9,853152890E0
2,159427750E-1	-6,221338734E-2	9,827322960E0	6,221339107E-1	9,847192375E0
2,171387640E-1	-7,178468257E-2	9,820143700E0	5,982056856E-1	9,838608914E0
2,183347540E-1	-7,417750359E-2	9,805787086E0	5,718846321E-1	9,822729494E0
2,195306910E-1	-7,657032460E-2	9,779465675E0	5,623133183E-1	9,795917934E0
2,207266810E-1	-7,417750359E-2	9,762716293E0	5,599204898E-1	9,779040990E0
2,219226700E-1	-6,939185411E-2	9,753145218E0	5,407779217E-1	9,768372312E0
2,231186600E-1	-7,657032460E-2	9,741181374E0	5,240281820E-1	9,755566775E0
2,243146500E-1	-7,896314561E-2	9,714859962E0	5,144568682E-1	9,728792584E0
2,255105870E-1	-7,417750359E-2	9,688538551E0	5,096712112E-1	9,702218628E0
2,267065770E-1	-6,699903309E-2	9,683753014E0	5,048855543E-1	9,697137244E0
2,279025660E-1	-6,460621208E-2	9,686145782E0	5,024927258E-1	9,699386219E0
2,290985560E-1	-6,939185411E-2	9,676574707E0	5,000999570E-1	9,689737523E0
2,302945450E-1	-6,939185411E-2	9,667003632E0	5,000999570E-1	9,680179462E0
2,314905350E-1	-6,699903309E-2	9,662218094E0	5,072783828E-1	9,675757269E0
2,326864720E-1	-6,939185411E-2	9,662218094E0	5,096712112E-1	9,675899879E0
2,338824620E-1	-6,699903309E-2	9,662218094E0	5,096712112E-1	9,675883014E0
2,350784520E-1	-6,221338734E-2	9,645467758E0	5,168496966E-1	9,659505805E0
2,362744410E-1	-5,503492057E-2	9,635896683E0	5,288137794E-1	9,650553235E0
2,374704310E-1	-4,307080805E-2	9,645467758E0	5,503492355E-1	9,661251868E0
2,386664200E-1	-4,067798331E-2	9,650253296E0	5,670989752E-1	9,666987360E0
2,398623580E-1	-4,546362907E-2	9,650253296E0	5,766702294E-1	9,667574886E0
2,410583470E-1	-4,307080805E-2	9,652647018E0	5,742774606E-1	9,669810968E0
2,422543370E-1	-4,785645381E-2	9,652647018E0	5,718846321E-1	9,669691657E0
2,434503270E-1	-5,742774159E-2	9,650253296E0	5,694918036E-1	9,667213018E0
2,446463160E-1	-5,742774159E-2	9,640682220E0	5,790630579E-1	9,658227873E0
2,458422540E-1	-5,024927482E-2	9,628718376E0	5,934200287E-1	9,647118217E0
2,470382430E-1	-6,939185411E-2	9,626325607E0	5,934200287E-1	9,644848742E0
2,482342330E-1	-9,332008660E-2	9,614361763E0	6,005984545E-1	9,633554861E0
2,494302220E-1	-9,810572863E-2	9,607182503E0	6,125625968E-1	9,627191351E0
2,506262120E-1	-9,332008660E-2	9,595218658E0	6,317051649E-1	9,616443270E0
2,518221500E-1	-8,853443712E-2	9,578469276E0	6,532405615E-1	9,601126770E0
2,530181390E-1	-9,092725813E-2	9,578469276E0	6,652047038E-1	9,601970566E0
2,542141290E-1	-9,332008660E-2	9,580862045E0	6,843472719E-1	9,605725239E0
2,554101180E-1	-9,571290761E-2	9,576076508E0	6,987041831E-1	9,602009674E0
2,566061080E-1	-1,004985496E-1	9,573683739E0	7,058826685E-1	9,600197427E0
2,578020970E-1	-9,332008660E-2	9,571290970E0	7,178468108E-1	9,598626126E0
2,589980350E-1	-8,853443712E-2	9,556933403E0	7,226324677E-1	9,584623733E0
2,601940250E-1	-9,332008660E-2	9,544969559E0	7,274180651E-1	9,573102400E0
2,613900140E-1	-1,076770201E-1	9,535398483E0	7,322037220E-1	9,564075536E0
2,625860040E-1	-1,076770201E-1	9,525827408E0	7,417750359E-1	9,555271443E0
2,637819930E-1	-9,810572863E-2	9,528220177E0	7,465606928E-1	9,557926414E0
2,649779310E-1	-1,004985496E-1	9,525827408E0	7,489534616E-1	9,555753191E0
2,661739200E-1	-1,076770201E-1	9,523433685E0	7,537391186E-1	9,553821547E0
2,673699100E-1	-1,100698411E-1	9,525827408E0	7,513462901E-1	9,556046485E0
2,685659000E-1	-1,100698411E-1	9,523433685E0	7,465606928E-1	9,553285163E0
2,697618890E-1	-1,052841991E-1	9,523433685E0	7,489534616E-1	9,553418509E0
2,709578790E-1	-9,571290761E-2	9,540184021E0	7,369893789E-1	9,569086971E0
2,721538160E-1	-9,092725813E-2	9,556933403E0	7,154539824E-1	9,584107587E0
2,733498060E-1	-8,853443712E-2	9,564111710E0	7,082754970E-1	9,590710366E0
2,745457950E-1	-8,853443712E-2	9,576076508E0	7,010970116E-1	9,602115217E0
2,757417850E-1	-1,004985496E-1	9,595218658E0	6,867401004E-1	9,620287575E0
2,769377750E-1	-1,100698411E-1	9,626325607E0	6,699903607E-1	9,650240782E0
2,781337120E-1	-1,220339537E-1	9,650253296E0	6,556333899E-1	9,673269153E0
2,793297020E-1	-1,435693651E-1	9,664610863E0	6,460621357E-1	9,687244788E0
2,805256910E-1	-1,651047617E-1	9,683753014E0	6,364908218E-1	9,706052368E0
2,817216810E-1	-1,794617027E-1	9,712467194E0	6,364908218E-1	9,734954856E0
2,829176700E-1	-1,914258152E-1	9,743574142E0	6,388836503E-1	9,766373597E0
2,841136600E-1	-1,986042857E-1	9,765109062E0	6,436693072E-1	9,788314913E0
2,853095970E-1	-2,057827413E-1	9,784252167E0	6,580262184E-1	9,808513420E0
2,865055870E-1	-2,033899277E-1	9,812965393E0	6,675975323E-1	9,837750949E0
2,877015770E-1	-1,986042857E-1	9,832108498E0	6,771687865E-1	9,857401216E0
2,888975660E-1	-1,914258152E-1	9,846465111E0	6,747759581E-1	9,871415380E0
2,900935560E-1	-1,770688742E-1	9,858428955E0	6,747759581E-1	9,883081374E0
2,912894930E-1	-1,627119333E-1	9,868000984E0	6,771687865E-1	9,892546495E0
2,924854830E-1	-1,674975902E-1	9,865608215E0	6,747759581E-1	9,890076011E0
2,936814720E-1	-1,627119333E-1	9,860821724E0	6,771687865E-1	9,885385061E0
2,948774620E-1	-1,387837082E-1	9,870393753E0	6,843472719E-1	9,895062655E0
2,960734520E-1	-1,268195957E-1	9,875179291E0	6,867401004E-1	9,899841473E0
2,972694410E-1	-1,172483116E-1	9,868000984E0	6,795616150E-1	9,892067255E0
2,984653790E-1	-1,052841991E-1	9,853643417E0	6,675975323E-1	9,876794005E0
2,996613680E-1	-1,028913707E-1	9,846465111E0	6,556333899E-1	9,868805245E0
3,008573580E-1	-1,148554832E-1	9,839286804E0	6,508477330E-1	9,861458278E0
3,020533470E-1	-1,148554832E-1	9,834501266E0	6,484549642E-1	9,856525797E0
3,032492850E-1	-9,332008660E-2	9,832108498E0	6,484549642E-1	9,853910898E0
3,044452750E-1	-7,417750359E-2	9,803394318E0	6,484549642E-1	9,825097266E0
3,056412640E-1	-5,982056633E-2	9,784252167E0	6,317051649E-1	9,804805984E0
3,068372540E-1	-4,307080805E-2	9,786644936E0	6,173482537E-1	9,806191567E0
3,080332430E-1	-2,153540403E-2	9,784252167E0	6,125625968E-1	9,803432418E0
3,092292330E-1	-1,435693540E-2	9,772287369E0	6,101697683E-1	9,791328494E0
3,104251700E-1	-1,674975827E-2	9,755537987E0	6,029912829E-1	9,774170065E0
3,116211600E-1	-9,571290575E-3	9,743574142E0	6,053841114E-1	9,762367469E0
3,128171500E-1	0,000000000E0	9,743574142E0	6,149554253E-1	9,762960988E0
3,140131390E-1	9,571290575E-3	9,741181374E0	6,197410822E-1	9,760880348E0
3,152091290E-1	1,914258115E-2	9,738788605E0	6,317051649E-1	9,759273607E0
3,164051180E-1	2,632104978E-2	9,736394882E0	6,436693072E-1	9,757683551E0
3,176010560E-1	1,674975827E-2	9,738788605E0	6,580262184E-1	9,761008275E0
3,187970450E-1	2,392822644E-3	9,745966911E0	6,795616150E-1	9,769630533E0
3,199930350E-1	7,178467698E-3	9,750752449E0	6,915257573E-1	9,775245916E0
3,211890250E-1	4,785645287E-3	9,755537987E0	6,963114142E-1	9,780357555E0
3,223850140E-1	-2,392822644E-3	9,760323524E0	7,106683254E-1	9,786162194E0
3,235809520E-1	-4,785645287E-3	9,762716293E0	7,202396393E-1	9,789249076E0
3,247769410E-1	-9,571290575E-3	9,769894600E0	7,226324677E-1	9,796587660E0
3,259729310E-1	-1,914258115E-2	9,772287369E0	7,274180651E-1	9,799342014E0
3,271689200E-1	-2,632104978E-2	9,774680138E0	7,393822074E-1	9,802639983E0
3,283649100E-1	-3,589234129E-2	9,781859398E0	7,537391186E-1	9,810921679E0
3,295608470E-1	-5,024927482E-2	9,793823242E0	7,609176040E-1	9,823466511E0
3,307568370E-1	-5,982056633E-2	9,798608780E0	7,680960894E-1	9,828849583E0
3,319528270E-1	-6,699903309E-2	9,796216011E0	7,704889178E-1	9,826697827E0
3,331488160E-1	-5,982056633E-2	9,791430473E0	7,657032609E-1	9,821506539E0
3,343448060E-1	-5,264209956E-2	9,789037704E0	7,585247755E-1	9,818522812E0
3,355407950E-1	-4,785645381E-2	9,798608780E0	7,561319470E-1	9,827856317E0
3,367367330E-1	-5,742774159E-2	9,803394318E0	7,561319470E-1	9,832678863E0
3,379327220E-1	-7,178468257E-2	9,805787086E0	7,537391186E-1	9,834975144E0
3,391287120E-1	-8,374879509E-2	9,808179855E0	7,465606928E-1	9,836907990E0
3,403247020E-1	-9,332008660E-2	9,805787086E0	7,298108935E-1	9,833351055E0
3,415206910E-1	-1,052841991E-1	9,801001549E0	7,106683254E-1	9,827296963E0
3,427166290E-1	-1,196411327E-1	9,808179855E0	6,915257573E-1	9,833255511E0
3,439126180E-1	-1,196411327E-1	9,810572624E0	6,699903607E-1	9,834151529E0
3,451086080E-1	-1,196411327E-1	9,791430473E0	6,532405615E-1	9,813926225E0
3,463045970E-1	-1,220339537E-1	9,772287369E0	6,484549642E-1	9,794538608E0
3,475005870E-1	-1,244267747E-1	9,765109062E0	6,532405615E-1	9,787724978E0
3,486965770E-1	-1,244267747E-1	9,772287369E0	6,556333899E-1	9,795046584E0
3,498925140E-1	-1,316052526E-1	9,774680138E0	6,484549642E-1	9,797049840E0
3,510885040E-1	-1,339980662E-1	9,762716293E0	6,436693072E-1	9,784829844E0
3,522844930E-1	-1,196411327E-1	9,755537987E0	6,436693072E-1	9,777481557E0
3,534804830E-1	-1,052841991E-1	9,748359680E0	6,364908218E-1	9,769683812E0
3,546764720E-1	-1,076770201E-1	9,741181374E0	6,317051649E-1	9,762236440E0
3,558724100E-1	-1,148554832E-1	9,731609344E0	6,340979934E-1	9,752922253E0
3,570684000E-1	-1,124626622E-1	9,714859962E0	6,340979934E-1	9,736181603E0
3,582643890E-1	-9,332008660E-2	9,705288887E0	6,221339107E-1	9,725656359E0
3,594603790E-1	-7,178468257E-2	9,698110580E0	6,077769399E-1	9,717401642E0
3,606563680E-1	-5,264209956E-2	9,690931320E0	5,910272002E-1	9,709079987E0
3,618523580E-1	-4,307080805E-2	9,686145782E0	5,838487148E-1	9,703821646E0
3,630482950E-1	-4,546362907E-2	9,681360245E0	5,814558864E-1	9,698912005E0
3,642442850E-1	-4,546362907E-2	9,671789169E0	5,814558864E-1	9,689358267E0
3,654402750E-1	-4,785645381E-2	9,655039787E0	5,862415433E-1	9,672939712E0
3,666362640E-1	-3,589234129E-2	9,638289452E0	5,958128572E-1	9,656754360E0
3,678322540E-1	-2,392822690E-2	9,633503914E0	6,053841114E-1	9,652536462E0
3,690281910E-1	-1,914258115E-2	9,633503914E0	6,125625968E-1	9,652978661E0
3,702241810E-1	-1,674975827E-2	9,628718376E0	6,173482537E-1	9,648503355E0
3,714201700E-1	-1,435693540E-2	9,635896683E0	6,149554253E-1	9,655510405E0
3,726161600E-1	0,000000000E0	9,650253296E0	6,149554253E-1	9,669827240E0
3,738121500E-1	7,178467698E-3	9,657432556E0	6,221339107E-1	9,677453472E0
3,750080870E-1	1,196411345E-2	9,657432556E0	6,077769399E-1	9,676545847E0
3,762040770E-1	1,674975827E-2	9,650253296E0	6,029912829E-1	9,669088257E0
3,774000660E-1	2,871387079E-2	9,657432556E0	6,149554253E-1	9,677034579E0
3,785960560E-1	4,785645381E-2	9,676574707E0	6,293123364E-1	9,697134748E0
3,797920450E-1	5,742774159E-2	9,693324089E0	6,484549642E-1	9,715159478E0
3,809880350E-1	5,742774159E-2	9,705288887E0	6,580262184E-1	9,727740171E0
3,821839720E-1	4,067798331E-2	9,719645500E0	6,628118753E-1	9,742303779E0
3,833799620E-1	3,110669367E-2	9,731609344E0	6,675975323E-1	9,754530974E0
3,845759520E-1	3,349951655E-2	9,729216576E0	6,652047038E-1	9,751988243E0
3,857719410E-1	3,110669367E-2	9,731609344E0	6,532405615E-1	9,753558904E0
3,869679310E-1	3,589234129E-2	9,738788605E0	6,317051649E-1	9,759320835E0
3,881638680E-1	5,024927482E-2	9,741181374E0	6,053841114E-1	9,760103968E0
3,893598580E-1	5,503492057E-2	9,731609344E0	5,814558864E-1	9,749119972E0
3,905558470E-1	5,503492057E-2	9,722038269E0	5,575276613E-1	9,738166873E0
3,917518370E-1	6,221338734E-2	9,714859962E0	5,335994363E-1	9,729702100E0
3,929478270E-1	6,939185411E-2	9,712467194E0	5,192425251E-1	9,726584550E0
3,941437640E-1	6,460621208E-2	9,710074425E0	5,096712112E-1	9,723655899E0
3,953397540E-1	5,982056633E-2	9,712467194E0	5,168496966E-1	9,726393530E0
3,965357430E-1	6,939185411E-2	9,714859962E0	5,335994363E-1	9,729750648E0
3,977317330E-1	8,614161611E-2	9,722038269E0	5,479564071E-1	9,737849080E0
3,989277220E-1	9,810572863E-2	9,726823807E0	5,647061467E-1	9,743696379E0
4,001237120E-1	9,332008660E-2	9,722038269E0	5,742774606E-1	9,739431777E0
4,013196500E-1	7,417750359E-2	9,719645500E0	5,814558864E-1	9,737304653E0
4,025156390E-1	6,939185411E-2	9,717252731E0	5,886343718E-1	9,735312337E0
4,037116290E-1	7,178468257E-2	9,726823807E0	5,934200287E-1	9,745173253E0
4,049076180E-1	6,699903309E-2	9,738788605E0	6,053841114E-1	9,757816471E0
4,061036080E-1	5,982056633E-2	9,738788605E0	6,221339107E-1	9,758823320E0
4,072995450E-1	6,699903309E-2	9,738788605E0	6,269195080E-1	9,759176217E0
4,084955350E-1	7,178468257E-2	9,750752449E0	6,245267391E-1	9,770995856E0
4,096915250E-1	6,221338734E-2	9,767501831E0	6,149554253E-1	9,787039016E0
4,108875140E-1	5,024927482E-2	9,772287369E0	6,101697683E-1	9,791446908E0
4,120835040E-1	5,024927482E-2	9,772287369E0	6,029912829E-1	9,791002191E0
4,132794410E-1	5,742774159E-2	9,772287369E0	5,886343718E-1	9,790167965E0
4,144754310E-1	5,503492057E-2	9,774680138E0	5,670989752E-1	9,791271719E0
4,156714200E-1	4,785645381E-2	9,784252167E0	5,575276613E-1	9,800240701E0
4,168674100E-1	5,503492057E-2	9,801001549E0	5,575276613E-1	9,817000422E0
4,180634000E-1	5,742774159E-2	9,805787086E0	5,479564071E-1	9,821253207E0
4,192593890E-1	5,742774159E-2	9,791430473E0	5,264210105E-1	9,805739530E0
4,204553270E-1	5,742774159E-2	9,781859398E0	5,120640397E-1	9,795421421E0
4,216513160E-1	5,503492057E-2	9,786644936E0	5,144568682E-1	9,800311924E0
4,228473060E-1	4,307080805E-2	9,798608780E0	5,120640397E-1	9,812074128E0
4,240432950E-1	1,914258115E-2	9,808179855E0	5,000999570E-1	9,820939796E0
4,252392850E-1	0,000000000E0	9,815358162E0	5,000999570E-1	9,828090141E0
4,264352220E-1	-1,674975827E-2	9,815358162E0	5,072783828E-1	9,828472300E0
4,276312120E-1	-4,067798331E-2	9,810572624E0	5,120640397E-1	9,824011375E0
4,288272020E-1	-5,264209956E-2	9,820143700E0	5,144568682E-1	9,833751031E0
4,300231910E-1	-5,742774159E-2	9,829715729E0	5,168496966E-1	9,843461935E0
4,312191810E-1	-6,221338734E-2	9,844072342E0	5,288137794E-1	9,858462091E0
4,324151700E-1	-6,460621208E-2	9,865608215E0	5,335994363E-1	9,880239257E0
4,336111080E-1	-6,939185411E-2	9,875179291E0	5,431707501E-1	9,890349626E0
4,348070970E-1	-6,699903309E-2	9,887143135E0	5,503492355E-1	9,902675019E0
4,360030870E-1	-7,417750359E-2	9,901499748E0	5,479564071E-1	9,916927739E0
4,371990770E-1	-1,004985496E-1	9,908679008E0	5,455635786E-1	9,924195649E0
4,383950660E-1	-1,244267747E-1	9,923035622E0	5,431707501E-1	9,938669551E0
4,395910040E-1	-1,387837082E-1	9,937392235E0	5,479564071E-1	9,953455760E0
4,407869930E-1	-1,459621787E-1	9,934999466E0	5,455635786E-1	9,951038085E0
4,419829830E-1	-1,459621787E-1	9,927821159E0	5,407779217E-1	9,943609943E0
4,431789720E-1	-1,483550072E-1	9,923035622E0	5,503492355E-1	9,939392810E0
4,443749620E-1	-1,627119333E-1	9,932606697E0	5,551348329E-1	9,949438459E0
4,455709000E-1	-1,722832322E-1	9,937392235E0	5,527420044E-1	9,954243802E0
4,467668890E-1	-1,722832322E-1	9,930213928E0	5,551348329E-1	9,947210908E0
4,479628790E-1	-1,794617027E-1	9,923035622E0	5,742774606E-1	9,941259329E0
4,491588680E-1	-1,962114573E-1	9,918250084E0	5,958128572E-1	9,938067047E0
4,503548580E-1	-2,057827413E-1	9,923035622E0	6,053841114E-1	9,943614655E0
4,515508470E-1	-2,153540403E-1	9,939785004E0	6,221339107E-1	9,961563827E0
4,527467850E-1	-2,297109663E-1	9,942177773E0	6,436693072E-1	9,965639777E0
4,539427750E-1	-2,344966233E-1	9,932606697E0	6,604190469E-1	9,957299723E0
4,551387640E-1	-2,321037948E-1	9,932606697E0	6,771687865E-1	9,958368618E0
4,563347540E-1	-2,321037948E-1	9,934999466E0	6,963114142E-1	9,962074892E0
4,575307430E-1	-2,321037948E-1	9,932606697E0	7,082754970E-1	9,960532222E0
4,587266810E-1	-2,321037948E-1	9,920642853E0	7,178468108E-1	9,949287956E0
4,599226700E-1	-2,249253243E-1	9,915857315E0	7,345965505E-1	9,945574382E0
4,611186600E-1	-2,081755698E-1	9,908679008E0	7,489534616E-1	9,939124109E0
4,623146500E-1	-1,962114573E-1	9,896714211E0	7,465606928E-1	9,926772082E0
4,635106390E-1	-1,842473447E-1	9,882357597E0	7,322037220E-1	9,911158411E0
4,647066290E-1	-1,627119333E-1	9,870393753E0	7,202396393E-1	9,897974194E0
4,659025660E-1	-1,411765367E-1	9,868000984E0	7,058826685E-1	9,894222788E0
4,670985560E-1	-1,244267747E-1	9,858428955E0	6,963114142E-1	9,883772209E0
4,682945450E-1	-1,028913707E-1	9,841679573E0	6,843472719E-1	9,865980673E0
4,694905350E-1	-9,810572863E-2	9,827322960E0	6,699903607E-1	9,850623756E0
4,706865250E-1	-1,028913707E-1	9,815358162E0	6,532405615E-1	9,837609756E0
4,718824620E-1	-9,092725813E-2	9,793823242E0	6,317051649E-1	9,814595910E0
4,730784520E-1	-7,178468257E-2	9,765109062E0	6,149554253E-1	9,784716563E0
4,742744410E-1	-6,939185411E-2	9,753145218E0	5,982056856E-1	9,771719752E0
4,754704310E-1	-6,221338734E-2	9,750752449E0	5,982056856E-1	9,769283181E0
4,766664200E-1	-5,503492057E-2	9,753145218E0	6,077769399E-1	9,772218954E0
4,778624100E-1	-5,982056633E-2	9,741181374E0	6,101697683E-1	9,760455942E0
4,790583470E-1	-5,503492057E-2	9,724431038E0	6,053841114E-1	9,743412019E0
4,802543370E-1	-5,742774159E-2	9,734002113E0	6,101697683E-1	9,753276487E0
4,814503270E-1	-5,742774159E-2	9,734002113E0	6,173482537E-1	9,753728208E0
4,826463160E-1	-5,264209956E-2	9,724431038E0	6,269195080E-1	9,744760555E0
4,838423060E-1	-5,024927482E-2	9,712467194E0	6,293123364E-1	9,732963474E0
4,850382430E-1	-3,828516230E-2	9,700503349E0	6,317051649E-1	9,721125573E0
4,862342330E-1	-3,828516230E-2	9,695717812E0	6,245267391E-1	9,715886130E0
4,874302220E-1	-4,785645381E-2	9,693324089E0	6,101697683E-1	9,712627311E0
4,886262120E-1	-5,024927482E-2	9,693324089E0	5,982056856E-1	9,711895125E0
4,898222020E-1	-5,742774159E-2	9,683753014E0	5,838487148E-1	9,701507599E0
4,910181910E-1	-5,982056633E-2	9,681360245E0	5,814558864E-1	9,698989929E0
4,922141290E-1	-5,264209956E-2	9,690931320E0	5,886343718E-1	9,708934621E0
4,934101180E-1	-4,785645381E-2	9,690931320E0	5,790630579E-1	9,708334261E0
4,946061080E-1	-2,632104978E-2	9,688538551E0	5,575276613E-1	9,704602473E0
4,958020970E-1	-4,785645287E-3	9,688538551E0	5,383850932E-1	9,703487037E0
4,969980870E-1	-1,196411345E-2	9,690931320E0	5,312066078E-1	9,705486771E0
4,981940250E-1	-1,674975827E-2	9,693324089E0	5,216353536E-1	9,707364003E0
4,993900140E-1	-2,871387079E-2	9,698110580E0	5,144568682E-1	9,711788671E0
5,005860040E-1	-5,264209956E-2	9,690931320E0	5,072783828E-1	9,704341935E0
5,017819930E-1	-6,460621208E-2	9,681360245E0	4,905286431E-1	9,693994455E0
5,029779830E-1	-6,939185411E-2	9,676574707E0	4,833501875E-1	9,688887485E0
5,041739200E-1	-7,896314561E-2	9,669396400E0	4,809573591E-1	9,681672475E0
5,053699100E-1	-8,614161611E-2	9,671789169E0	4,785645306E-1	9,684004860E0
5,065659000E-1	-8,853443712E-2	9,669396400E0	4,785645306E-1	9,681636696E0
5,077618890E-1	-8,374879509E-2	9,667003632E0	4,809573591E-1	9,679322965E0
5,089578790E-1	-8,614161611E-2	9,674181938E0	4,881358147E-1	9,686872205E0
5,101538680E-1	-1,100698411E-1	9,676574707E0	5,096712112E-1	9,690612890E0
5,113498060E-1	-1,172483116E-1	9,681360245E0	5,359922647E-1	9,696894919E0
5,125457950E-1	-1,220339537E-1	9,695717812E0	5,670989752E-1	9,713054999E0
5,137417850E-1	-1,316052526E-1	9,707681656E0	6,005984545E-1	9,727133266E0
5,149377750E-1	-1,363908947E-1	9,726823807E0	6,317051649E-1	9,748269347E0
5,161337640E-1	-1,387837082E-1	9,757930756E0	6,675975323E-1	9,781725820E0
5,173297020E-1	-1,411765367E-1	9,781859398E0	6,939185858E-1	9,807457729E0
5,185256910E-1	-1,555334777E-1	9,793823242E0	7,058826685E-1	9,820460005E0
5,197216810E-1	-1,722832322E-1	9,798608780E0	7,178468108E-1	9,826378762E0
5,209176700E-1	-1,890329868E-1	9,805787086E0	7,298108935E-1	9,834725100E0
5,221136600E-1	-1,986042857E-1	9,820143700E0	7,417750359E-1	9,850121631E0
5,233096500E-1	-1,890329868E-1	9,841679573E0	7,537391186E-1	9,872310416E0
5,245055870E-1	-1,818545163E-1	9,856036186E0	7,609176040E-1	9,887037775E0
5,257015770E-1	-1,842473447E-1	9,860821724E0	7,633104324E-1	9,892036948E0
5,268975660E-1	-1,962114573E-1	9,872786522E0	7,657032609E-1	9,904378533E0
5,280935560E-1	-2,129612118E-1	9,879964828E0	7,633104324E-1	9,911695128E0
5,292895450E-1	-2,201396823E-1	9,877572060E0	7,609176040E-1	9,909282864E0
5,304854830E-1	-2,344966233E-1	9,882357597E0	7,561319470E-1	9,914016132E0
5,316814720E-1	-2,440679073E-1	9,887143135E0	7,465606928E-1	9,918292262E0
5,328774620E-1	-2,488535494E-1	9,882357597E0	7,513462901E-1	9,914002270E0
5,340734520E-1	-2,560320199E-1	9,879964828E0	7,609176040E-1	9,912530101E0
5,352694410E-1	-2,536391914E-1	9,884750366E0	7,633104324E-1	9,917422319E0
5,364654310E-1	-2,632105052E-1	9,879964828E0	7,609176040E-1	9,912718113E0
5,376613680E-1	-2,751746178E-1	9,879964828E0	7,633104324E-1	9,913226967E0
5,388573580E-1	-2,823530734E-1	9,870393753E0	7,728816867E-1	9,904632361E0
5,400533470E-1	-2,967100143E-1	9,868000984E0	7,728816867E-1	9,902667638E0
5,412493370E-1	-2,943171859E-1	9,863214493E0	7,704889178E-1	9,897639916E0
5,424453270E-1	-2,943171859E-1	9,858428955E0	7,752745152E-1	9,893244900E0
5,436412640E-1	-2,991028428E-1	9,846465111E0	7,800601721E-1	9,881843530E0
5,448372540E-1	-3,014956415E-1	9,832108498E0	7,728816867E-1	9,867046328E0
5,460332430E-1	-3,086741269E-1	9,829715729E0	7,633104324E-1	9,864138778E0
5,472292330E-1	-2,991028428E-1	9,829715729E0	7,609176040E-1	9,863659028E0
5,484252220E-1	-2,823530734E-1	9,822537422E0	7,537391186E-1	9,855459772E0
5,496211600E-1	-2,656033039E-1	9,812965393E0	7,393822074E-1	9,844364935E0
5,508171500E-1	-2,608176768E-1	9,796216011E0	7,298108935E-1	9,826825425E0
5,520131390E-1	-2,536391914E-1	9,769894600E0	7,154539824E-1	9,799339148E0
5,532091290E-1	-2,368894368E-1	9,750752449E0	7,010970116E-1	9,778794759E0
5,544051180E-1	-2,273181528E-1	9,738788605E0	6,891329288E-1	9,765786257E0
5,556011080E-1	-2,105683982E-1	9,731609344E0	6,652047038E-1	9,756590428E0
5,567970450E-1	-1,962114573E-1	9,726823807E0	6,412764788E-1	9,749914657E0
5,579930350E-1	-1,962114573E-1	9,712467194E0	6,245267391E-1	9,734503150E0
5,591890250E-1	-1,962114573E-1	9,688538551E0	6,173482537E-1	9,710169775E0
5,603850140E-1	-1,842473447E-1	9,676574707E0	6,101697683E-1	9,697543622E0
5,615810040E-1	-1,698904037E-1	9,676574707E0	6,053841114E-1	9,696981527E0
5,627769410E-1	-1,651047617E-1	9,678967476E0	5,982056856E-1	9,698841221E0
5,639729310E-1	-1,507478207E-1	9,681360245E0	5,910272002E-1	9,700555358E0
5,651689200E-1	-1,268195957E-1	9,681360245E0	5,886343718E-1	9,700067516E0
5,663649100E-1	-1,148554832E-1	9,690931320E0	5,790630579E-1	9,708895697E0
5,675609000E-1	-1,196411327E-1	9,710074425E0	5,670989752E-1	9,727356300E0
5,687568370E-1	-1,124626622E-1	9,729216576E0	5,575276613E-1	9,745826805E0
5,699528270E-1	-1,052841991E-1	9,748359680E0	5,527420044E-1	9,764585242E0
5,711488160E-1	-9,332008660E-2	9,760323524E0	5,527420044E-1	9,776407708E0
5,723448060E-1	-8,374879509E-2	9,757930756E0	5,479564071E-1	9,773662707E0
5,735407950E-1	-8,614161611E-2	9,767501831E0	5,455635786E-1	9,783105438E0
5,747367330E-1	-8,374879509E-2	9,781859398E0	5,503492355E-1	9,797687044E0
5,759327220E-1	-8,135596663E-2	9,789037704E0	5,647061467E-1	9,805649953E0
5,771287120E-1	-9,332008660E-2	9,781859398E0	5,814558864E-1	9,799570035E0
5,783247020E-1	-1,004985496E-1	9,789037704E0	5,934200287E-1	9,807522953E0
5,795206910E-1	-1,028913707E-1	9,810572624E0	5,982056856E-1	9,829332220E0
5,807166810E-1	-1,124626622E-1	9,839286804E0	6,053841114E-1	9,858534505E0
5,819126180E-1	-1,196411327E-1	9,872786522E0	6,245267391E-1	9,893243217E0
5,831086080E-1	-1,148554832E-1	9,894321442E0	6,460621357E-1	9,916056921E0
5,843045970E-1	-1,052841991E-1	9,911071777E0	6,604190469E-1	9,933608703E0
5,855005870E-1	-1,004985496E-1	9,927821159E0	6,771687865E-1	9,951396409E0
5,866965770E-1	-1,124626622E-1	9,944570541E0	6,915257573E-1	9,969219577E0
5,878925140E-1	-1,244267747E-1	9,951749802E0	7,034898400E-1	9,977359575E0
5,890885040E-1	-1,363908947E-1	9,961320877E0	7,082754970E-1	9,987400576E0
5,902844930E-1	-1,411765367E-1	9,968499184E0	7,130611539E-1	9,994966883E0
5,914804830E-1	-1,316052526E-1	9,975677490E0	7,226324677E-1	1,000268259E1
5,926764720E-1	-1,220339537E-1	9,980463028E0	7,298108935E-1	1,000785484E1
5,938724620E-1	-1,172483116E-1	9,978070259E0	7,274180651E-1	1,000523714E1
5,950684000E-1	-1,172483116E-1	9,978070259E0	7,322037220E-1	1,000558622E1
5,962643890E-1	-1,172483116E-1	9,982855797E0	7,417750359E-1	1,001106324E1
5,974603790E-1	-1,076770201E-1	9,987641335E0	7,441678643E-1	1,001590533E1
5,986563680E-1	-9,810572863E-2	9,985248566E0	7,393822074E-1	1,001306645E1
5,998523580E-1	-9,810572863E-2	9,978070259E0	7,322037220E-1	1,000538021E1
6,010483470E-1	-9,571290761E-2	9,970891953E0	7,250252366E-1	9,997675174E0
6,022442850E-1	-1,004985496E-1	9,946963310E0	7,178468108E-1	9,973338613E0
6,034402750E-1	-9,571290761E-2	9,920642853E0	7,082754970E-1	9,946354596E0
6,046362640E-1	-7,657032460E-2	9,920642853E0	6,987041831E-1	9,945511810E0
6,058322540E-1	-5,982056633E-2	9,920642853E0	6,915257573E-1	9,944895222E0
6,070282430E-1	-5,024927482E-2	9,911071777E0	6,795616150E-1	9,934468922E0
6,082241810E-1	-4,546362907E-2	9,891928673E0	6,556333899E-1	9,913736680E0
6,094201700E-1	-4,067798331E-2	9,875179291E0	6,364908218E-1	9,895753700E0
6,106161600E-1	-3,589234129E-2	9,870393753E0	6,293123364E-1	9,890500246E0
6,118121500E-1	-2,871387079E-2	9,872786522E0	6,221339107E-1	9,892410667E0
6,130081390E-1	-3,828516230E-2	9,858428955E0	6,149554253E-1	9,877664572E0
6,142040770E-1	-4,067798331E-2	9,836894035E0	6,077769399E-1	9,855735983E0
6,154000660E-1	-4,785645381E-2	9,820143700E0	6,101697683E-1	9,839198121E0
6,165960560E-1	-6,939185411E-2	9,810572624E0	6,077769399E-1	9,829625794E0
6,177920450E-1	-7,657032460E-2	9,810572624E0	6,077769399E-1	9,829679091E0
6,189880350E-1	-6,939185411E-2	9,803394318E0	6,221339107E-1	9,823360218E0
6,201839720E-1	-5,742774159E-2	9,793823242E0	6,293123364E-1	9,814188997E0
6,213799620E-1	-6,460621208E-2	9,791430473E0	6,245267391E-1	9,811540059E0
6,225759520E-1	-8,614161611E-2	9,801001549E0	6,173482537E-1	9,820802951E0
6,237719410E-1	-9,092725813E-2	9,812965393E0	6,149554253E-1	9,832635849E0
6,249679310E-1	-9,571290761E-2	9,812965393E0	6,101697683E-1	9,832383125E0
6,261639200E-1	-1,076770201E-1	9,803394318E0	6,077769399E-1	9,822806488E0
6,273598580E-1	-1,124626622E-1	9,808179855E0	6,053841114E-1	9,827488481E0
6,285558470E-1	-1,172483116E-1	9,820143700E0	6,005984545E-1	9,839191428E0
6,297518370E-1	-1,220339537E-1	9,815358162E0	5,982056856E-1	9,834327541E0
6,309478270E-1	-1,244267747E-1	9,810572624E0	5,910272002E-1	9,829146982E0
6,321438160E-1	-1,220339537E-1	9,817750931E0	5,862415433E-1	9,835995363E0
6,333397540E-1	-1,196411327E-1	9,824930191E0	5,814558864E-1	9,842848074E0
6,345357430E-1	-1,268195957E-1	9,834501266E0	5,766702294E-1	9,852210256E0
6,357317330E-1	-1,316052526E-1	9,841679573E0	5,814558864E-1	9,859719454E0
6,369277220E-1	-1,316052526E-1	9,848857880E0	5,862415433E-1	9,867167812E0
6,381237120E-1	-1,387837082E-1	9,863214493E0	5,934200287E-1	9,882024508E0
6,393197020E-1	-1,411765367E-1	9,877572060E0	5,910272002E-1	9,896245437E0
6,405156390E-1	-1,292124242E-1	9,891928673E0	5,862415433E-1	9,910127540E0
6,417116290E-1	-1,292124242E-1	9,903892517E0	5,814558864E-1	9,921787832E0
6,429076180E-1	-1,339980662E-1	9,906285286E0	5,694918036E-1	9,923545967E0
6,441036080E-1	-1,363908947E-1	9,908679008E0	5,575276613E-1	9,925288876E0
6,452995970E-1	-1,411765367E-1	9,923035622E0	5,575276613E-1	9,939688318E0
6,464955350E-1	-1,435693651E-1	9,934999466E0	5,670989752E-1	9,952207182E0
6,476915250E-1	-1,363908947E-1	9,937392235E0	5,670989752E-1	9,954494872E0
6,488875140E-1	-1,435693651E-1	9,944570541E0	5,718846321E-1	9,962035306E0
6,500835040E-1	-1,507478207E-1	9,961320877E0	5,814558864E-1	9,979415287E0
6,512794930E-1	-1,483550072E-1	9,970891953E0	5,934200287E-1	9,989636774E0
6,524754310E-1	-1,459621787E-1	9,973284721E0	5,982056856E-1	9,992275173E0
6,536714200E-1	-1,459621787E-1	9,978070259E0	5,958128572E-1	9,996908723E0
6,548674100E-1	-1,435693651E-1	9,978070259E0	6,101697683E-1	9,997740015E0
6,560634000E-1	-1,387837082E-1	9,975677490E0	6,317051649E-1	9,996622116E0
6,572593890E-1	-1,387837082E-1	9,978070259E0	6,580262184E-1	1,000070725E1
6,584553790E-1	-1,316052526E-1	9,980463028E0	6,723831892E-1	1,000395229E1
6,596513160E-1	-1,196411327E-1	9,982855797E0	6,891329288E-1	1,000732872E1
6,608473060E-1	-1,124626622E-1	9,970891953E0	6,963114142E-1	9,995808310E0
6,620432950E-1	-1,076770201E-1	9,963713646E0	6,987041831E-1	9,988762260E0
6,632392850E-1	-1,004985496E-1	9,963713646E0	7,226324677E-1	9,990389745E0
6,644352750E-1	-9,571290761E-2	9,968499184E0	7,369893789E-1	9,996163778E0
6,656312640E-1	-8,853443712E-2	9,980463028E0	7,513462901E-1	1,000909596E1
6,668272020E-1	-7,417750359E-2	9,985248566E0	7,704889178E-1	1,001520566E1
6,680231910E-1	-7,896314561E-2	9,990034103E0	7,824530005E-1	1,002094054E1
6,692191810E-1	-8,853443712E-2	9,997213364E0	7,872386575E-1	1,002855214E1
6,704151700E-1	-8,853443712E-2	1,000678444E1	7,920243144E-1	1,003846979E1
6,716111600E-1	-8,135596663E-2	1,000199890E1	7,968099117E-1	1,003401748E1
6,728070970E-1	-6,699903309E-2	9,994820595E0	8,039883971E-1	1,002732890E1
6,740030870E-1	-5,742774159E-2	1,000199890E1	8,111668825E-1	1,003500233E1
6,751990770E-1	-6,221338734E-2	9,997213364E0	8,135597110E-1	1,003045487E1
6,763950660E-1	-6,939185411E-2	9,990034103E0	8,087740541E-1	1,002295925E1
6,775910560E-1	-7,896314561E-2	9,994820595E0	8,015955687E-1	1,002722441E1
6,787869930E-1	-7,896314561E-2	9,990034103E0	7,896314859E-1	1,002150360E1
6,799829830E-1	-6,221338734E-2	9,982855797E0	7,728816867E-1	1,001292297E1
6,811789720E-1	-5,024927482E-2	9,978070259E0	7,561319470E-1	1,000680501E1
6,823749620E-1	-5,024927482E-2	9,975677490E0	7,441678643E-1	1,000352199E1
6,835709520E-1	-5,982056633E-2	9,968499184E0	7,274180651E-1	9,995183416E0
6,847668890E-1	-7,657032460E-2	9,958928108E0	6,987041831E-1	9,983701699E0
6,859628790E-1	-7,657032460E-2	9,966106415E0	6,771687865E-1	9,989379243E0
6,871588680E-1	-6,221338734E-2	9,956535339E0	6,652047038E-1	9,978925983E0
6,883548580E-1	-6,460621208E-2	9,946963310E0	6,556333899E-1	9,968756603E0
6,895508470E-1	-8,135596663E-2	9,939785004E0	6,508477330E-1	9,961402887E0
6,907468370E-1	-8,853443712E-2	9,925428391E0	6,484549642E-1	9,946982503E0
6,919427750E-1	-8,853443712E-2	9,923035622E0	6,484549642E-1	9,944594921E0
6,931387640E-1	-9,332008660E-2	9,915857315E0	6,436693072E-1	9,937164843E0
6,943347540E-1	-1,052841991E-1	9,906285286E0	6,245267391E-1	9,926510292E0
6,955307430E-1	-1,148554832E-1	9,911071777E0	6,077769399E-1	9,930353889E0
6,967267330E-1	-1,292124242E-1	9,908679008E0	6,053841114E-1	9,927996045E0
6,979227220E-1	-1,387837082E-1	9,906285286E0	6,029912829E-1	9,925590540E0
6,991186600E-1	-1,555334777E-1	9,899106979E0	6,101697683E-1	9,919113710E0
7,003146500E-1	-1,722832322E-1	9,891928673E0	6,245267391E-1	9,913121003E0
7,015106390E-1	-1,794617027E-1	9,894321442E0	6,317051649E-1	9,916090697E0
7,027066290E-1	-1,914258152E-1	9,887143135E0	6,484549642E-1	9,910233956E0
7,039026180E-1	-2,009970993E-1	9,863214493E0	6,508477330E-1	9,886708387E0
7,050985560E-1	-2,129612118E-1	9,853643417E0	6,317051649E-1	9,876167905E0
7,062945450E-1	-2,273181528E-1	9,858428955E0	6,149554253E-1	9,880205726E0
7,074905350E-1	-2,536391914E-1	9,858428955E0	5,982056856E-1	9,879818032E0
7,086865250E-1	-2,751746178E-1	9,848857880E0	5,862415433E-1	9,870126734E0
7,098824620E-1	-2,775674164E-1	9,839286804E0	5,838487148E-1	9,860501397E0
7,110784520E-1	-2,799602449E-1	9,834501266E0	5,886343718E-1	9,856078496E0
7,122744410E-1	-2,991028428E-1	9,836894035E0	5,886343718E-1	9,859028208E0
7,134704310E-1	-3,206382394E-1	9,834501266E0	5,886343718E-1	9,857317813E0
7,146664200E-1	-3,230310678E-1	9,822537422E0	5,862415433E-1	9,845317142E0
7,158624100E-1	-3,230310678E-1	9,810572624E0	5,790630579E-1	9,832954709E0
7,170583470E-1	-3,230310678E-1	9,803394318E0	5,862415433E-1	9,826218416E0
7,182543370E-1	-3,278166950E-1	9,793823242E0	5,958128572E-1	9,817404466E0
7,194503270E-1	-3,302095234E-1	9,786644936E0	5,886343718E-1	9,809890308E0
7,206463160E-1	-3,182454109E-1	9,796216011E0	5,790630579E-1	9,818474540E0
7,218423060E-1	-2,991028428E-1	9,808179855E0	5,742774606E-1	9,829529449E0
7,230382430E-1	-2,919243574E-1	9,805787086E0	5,694918036E-1	9,826647502E0
7,242342330E-1	-2,775674164E-1	9,798608780E0	5,599204898E-1	9,818517640E0
7,254302220E-1	-2,656033039E-1	9,789037704E0	5,551348329E-1	9,808362706E0
7,266262120E-1	-2,560320199E-1	9,791430473E0	5,455635786E-1	9,809959364E0
7,278222020E-1	-2,440679073E-1	9,808179855E0	5,359922647E-1	9,825845965E0
7,290181910E-1	-2,249253243E-1	9,812965393E0	5,288137794E-1	9,829777476E0
7,302141290E-1	-2,057827413E-1	9,808179855E0	5,288137794E-1	9,824580532E0
7,314101180E-1	-2,009970993E-1	9,805787086E0	5,431707501E-1	9,822876090E0
7,326061080E-1	-1,938186288E-1	9,808179855E0	5,575276613E-1	9,825924630E0
7,338020970E-1	-1,746760458E-1	9,820143700E0	5,670989752E-1	9,838055461E0
7,349980870E-1	-1,627119333E-1	9,829715729E0	5,814558864E-1	9,848242352E0
7,361940250E-1	-1,627119333E-1	9,829715729E0	6,029912829E-1	9,849537297E0
7,373900140E-1	-1,579262912E-1	9,829715729E0	6,101697683E-1	9,849901480E0
7,385860040E-1	-1,579262912E-1	9,841679573E0	6,053841114E-1	9,861545896E0
7,397819930E-1	-1,603191197E-1	9,848857880E0	6,125625968E-1	9,869191288E0
7,409779830E-1	-1,627119333E-1	9,856036186E0	6,221339107E-1	9,876992208E0
7,421739200E-1	-1,579262912E-1	9,853643417E0	6,125625968E-1	9,873928410E0
7,433699100E-1	-1,483550072E-1	9,858428955E0	6,005984545E-1	9,877821074E0
7,445659000E-1	-1,531406492E-1	9,870393753E0	6,053841114E-1	9,890127139E0
7,457618890E-1	-1,531406492E-1	9,872786522E0	6,125625968E-1	9,892957025E0
7,469578790E-1	-1,411765367E-1	9,870393753E0	6,077769399E-1	9,890095877E0
7,481538680E-1	-1,244267747E-1	9,872786522E0	6,005984545E-1	9,891820572E0
7,493498060E-1	-1,220339537E-1	9,889535904E0	5,934200287E-1	9,908075495E0
7,505457950E-1	-1,244267747E-1	9,894321442E0	5,910272002E-1	9,912738873E0
7,517417850E-1	-1,244267747E-1	9,887143135E0	5,862415433E-1	9,905289523E0
7,529377750E-1	-1,244267747E-1	9,882357597E0	5,766702294E-1	9,899950619E0
7,541337640E-1	-1,196411327E-1	9,860821724E0	5,718846321E-1	9,878115767E0
7,553297020E-1	-1,028913707E-1	9,848857880E0	5,647061467E-1	9,865570495E0
7,565256910E-1	-8,614161611E-2	9,846465111E0	5,623133183E-1	9,862884559E0
7,577216810E-1	-9,092725813E-2	9,841679573E0	5,623133183E-1	9,858149971E0
7,589176700E-1	-9,810572863E-2	9,832108498E0	5,623133183E-1	9,848663793E0
7,601136600E-1	-9,810572863E-2	9,815358162E0	5,575276613E-1	9,831669119E0
7,613096500E-1	-9,571290761E-2	9,808179855E0	5,575276613E-1	9,824479128E0
7,625055870E-1	-9,810572863E-2	9,801001549E0	5,647061467E-1	9,817746642E0
7,637015770E-1	-1,148554832E-1	9,781859398E0	5,718846321E-1	9,799235536E0
7,648975660E-1	-1,339980662E-1	9,762716293E0	5,814558864E-1	9,780934304E0
7,660935560E-1	-1,435693651E-1	9,760323524E0	5,838487148E-1	9,778824407E0
7,672895450E-1	-1,459621787E-1	9,757930756E0	5,838487148E-1	9,776471598E0
7,684854830E-1	-1,507478207E-1	9,757930756E0	5,766702294E-1	9,776118150E0
7,696814720E-1	-1,579262912E-1	9,755537987E0	5,670989752E-1	9,773283142E0
7,708774620E-1	-1,627119333E-1	9,741181374E0	5,670989752E-1	9,759031252E0
7,720734520E-1	-1,651047617E-1	9,738788605E0	5,718846321E-1	9,756962391E0
7,732694410E-1	-1,674975902E-1	9,734002113E0	5,694918036E-1	9,752085597E0
7,744653790E-1	-1,651047617E-1	9,719645500E0	5,623133183E-1	9,737297597E0
7,756613680E-1	-1,603191197E-1	9,717252731E0	5,575276613E-1	9,734553917E0
7,768573580E-1	-1,627119333E-1	9,714859962E0	5,575276613E-1	9,732205113E0
7,780533470E-1	-1,698904037E-1	9,710074425E0	5,455635786E-1	9,726872452E0
7,792493370E-1	-1,651047617E-1	9,707681656E0	5,240281820E-1	9,723216970E0
7,804453270E-1	-1,794617027E-1	9,695717812E0	5,048855543E-1	9,710512850E0
7,816412640E-1	-1,986042857E-1	9,678967476E0	4,857429862E-1	9,693183239E0
7,828372540E-1	-2,201396823E-1	9,671789169E0	4,737788737E-1	9,685888376E0
7,840332430E-1	-2,488535494E-1	9,667003632E0	4,785645306E-1	9,682040658E0
7,852292330E-1	-2,584248483E-1	9,669396400E0	4,809573591E-1	9,684798921E0
7,864252220E-1	-2,679961324E-1	9,667003632E0	4,785645306E-1	9,682551583E0
7,876211600E-1	-2,703889608E-1	9,664610863E0	4,857429862E-1	9,680586737E0
7,888171500E-1	-2,751746178E-1	9,669396400E0	4,953143001E-1	9,685983898E0
7,900131390E-1	-2,727817893E-1	9,667003632E0	4,977070987E-1	9,683650214E0
7,912091290E-1	-2,751746178E-1	9,664610863E0	4,977070987E-1	9,681329276E0
7,924051180E-1	-2,895315289E-1	9,664610863E0	5,048855543E-1	9,682119657E0
7,936010560E-1	-2,991028428E-1	9,664610863E0	5,024927258E-1	9,682286124E0
7,947970450E-1	-3,014956415E-1	9,667003632E0	5,000999570E-1	9,684624866E0
7,959930350E-1	-3,134597540E-1	9,671789169E0	5,048855543E-1	9,690029524E0
7,971890250E-1	-3,182454109E-1	9,664610863E0	5,072783828E-1	9,683145906E0
7,983850140E-1	-3,086741269E-1	9,659825325E0	5,120640397E-1	9,678311558E0
7,995810040E-1	-3,038884699E-1	9,664610863E0	5,240281820E-1	9,683576657E0
8,007769410E-1	-3,062812984E-1	9,669396400E0	5,383850932E-1	9,689215319E0
8,019729310E-1	-3,062812984E-1	9,681360245E0	5,503492355E-1	9,701826050E0
8,031689200E-1	-2,967100143E-1	9,690931320E0	5,718846321E-1	9,712324064E0
8,043649100E-1	-2,967100143E-1	9,695717812E0	6,053841114E-1	9,719129109E0
8,055609000E-1	-3,086741269E-1	9,702896118E0	6,317051649E-1	9,728336148E0
8,067568370E-1	-3,110669553E-1	9,714859962E0	6,508477330E-1	9,741605079E0
8,079528270E-1	-3,086741269E-1	9,726823807E0	6,604190469E-1	9,754103465E0
8,091488160E-1	-3,038884699E-1	9,738788605E0	6,771687865E-1	9,767031753E0
8,103448060E-1	-3,038884699E-1	9,745966911E0	6,915257573E-1	9,775194479E0
8,115407950E-1	-3,038884699E-1	9,760323524E0	6,963114142E-1	9,789847450E0
8,127367330E-1	-2,967100143E-1	9,767501831E0	7,082754970E-1	9,797641708E0
8,139327220E-1	-2,823530734E-1	9,750752449E0	7,274180651E-1	9,781923820E0
8,151287120E-1	-2,823530734E-1	9,741181374E0	7,393822074E-1	9,773281120E0
8,163247020E-1	-2,871387303E-1	9,745966911E0	7,369893789E-1	9,778009666E0
8,175206910E-1	-2,823530734E-1	9,755537987E0	7,441678643E-1	9,787953335E0
8,187166810E-1	-2,751746178E-1	9,772287369E0	7,417750359E-1	9,804261915E0
8,199126180E-1	-2,703889608E-1	9,781859398E0	7,322037220E-1	9,812950920E0
8,211086080E-1	-2,656033039E-1	9,786644936E0	7,226324677E-1	9,816881475E0
8,223045970E-1	-2,536391914E-1	9,789037704E0	7,130611539E-1	9,818250772E0
8,235005870E-1	-2,392822653E-1	9,789037704E0	7,034898400E-1	9,817199862E0
8,246965770E-1	-2,273181528E-1	9,796216011E0	6,963114142E-1	9,823562046E0
8,258925140E-1	-2,081755698E-1	9,793823242E0	6,867401004E-1	9,820077532E0
8,270885040E-1	-1,986042857E-1	9,786644936E0	6,795616150E-1	9,812220276E0
8,282844930E-1	-1,938186288E-1	9,784252167E0	6,699903607E-1	9,809079631E0
8,294804830E-1	-1,842473447E-1	9,772287369E0	6,532405615E-1	9,795829252E0
8,306764720E-1	-1,794617027E-1	9,765109062E0	6,412764788E-1	9,787788158E0
8,318724100E-1	-1,818545163E-1	9,767501831E0	6,269195080E-1	9,789289614E0
8,330684000E-1	-1,842473447E-1	9,760323524E0	6,125625968E-1	9,781262461E0
8,342643890E-1	-1,770688742E-1	9,743574142E0	5,982056856E-1	9,763526028E0
8,354603790E-1	-1,674975902E-1	9,736394882E0	5,982056856E-1	9,756192433E0
8,366563680E-1	-1,579262912E-1	9,724431038E0	6,029912829E-1	9,744388037E0
8,378523580E-1	-1,363908947E-1	9,717252731E0	6,053841114E-1	9,737047450E0
8,390482950E-1	-1,220339537E-1	9,717252731E0	6,173482537E-1	9,737608115E0
8,402442850E-1	-1,148554832E-1	9,717252731E0	6,269195080E-1	9,738132290E0
8,414402750E-1	-1,004985496E-1	9,719645500E0	6,269195080E-1	9,740361219E0
8,426362640E-1	-8,374879509E-2	9,717252731E0	6,340979934E-1	9,738279867E0
8,438322540E-1	-7,417750359E-2	9,714859962E0	6,460621357E-1	9,736601187E0
8,450282430E-1	-7,178468257E-2	9,714859962E0	6,484549642E-1	9,736742318E0
8,462241810E-1	-6,221338734E-2	9,714859962E0	6,532405615E-1	9,736996345E0
8,474201700E-1	-5,982056633E-2	9,712467194E0	6,628118753E-1	9,735240987E0
8,486161600E-1	-5,503492057E-2	9,717252731E0	6,628118753E-1	9,739987119E0
8,498121500E-1	-4,785645381E-2	9,726823807E0	6,604190469E-1	9,749335615E0
8,510081390E-1	-3,589234129E-2	9,731609344E0	6,652047038E-1	9,754383937E0
8,522040770E-1	-1,674975827E-2	9,741181374E0	6,723831892E-1	9,764373726E0
8,534000660E-1	-9,571290575E-3	9,755537987E0	6,699903607E-1	9,778522389E0
8,545960560E-1	-7,178467698E-3	9,762716293E0	6,604190469E-1	9,785031133E0
8,557920450E-1	-1,435693540E-2	9,774680138E0	6,556333899E-1	9,796654177E0
8,569880350E-1	-1,914258115E-2	9,774680138E0	6,556333899E-1	9,796662359E0
8,581839720E-1	-1,196411345E-2	9,772287369E0	6,580262184E-1	9,794424029E0
8,593799620E-1	-1,914258115E-2	9,781859398E0	6,675975323E-1	9,804632894E0
8,605759520E-1	-2,871387079E-2	9,791430473E0	6,747759581E-1	9,814696011E0
8,617719410E-1	-2,871387079E-2	9,812965393E0	6,652047038E-1	9,835528028E0
8,629679310E-1	-3,589234129E-2	9,839286804E0	6,532405615E-1	9,861012945E0
8,641639200E-1	-5,024927482E-2	9,851250648E0	6,508477330E-1	9,872855063E0
8,653598580E-1	-6,460621208E-2	9,860821724E0	6,460621357E-1	9,882174625E0
8,665558470E-1	-7,657032460E-2	9,877572060E0	6,460621357E-1	9,898974143E0
8,677518370E-1	-9,092725813E-2	9,901499748E0	6,317051649E-1	9,922046989E0
8,689478270E-1	-9,571290761E-2	9,911071777E0	6,197410822E-1	9,930890380E0
8,701438160E-1	-8,853443712E-2	9,908679008E0	6,125625968E-1	9,927990279E0
8,713398060E-1	-9,810572863E-2	9,913464546E0	6,005984545E-1	9,932125782E0
8,725357430E-1	-1,052841991E-1	9,925428391E0	5,862415433E-1	9,943283796E0
8,737317330E-1	-1,124626622E-1	9,930213928E0	5,790630579E-1	9,947718861E0
8,749277220E-1	-1,268195957E-1	9,920642853E0	5,742774606E-1	9,938059792E0
8,761237120E-1	-1,292124242E-1	9,901499748E0	5,718846321E-1	9,918842934E0
8,773196500E-1	-1,339980662E-1	9,879964828E0	5,718846321E-1	9,897409385E0
8,785156390E-1	-1,435693651E-1	9,870393753E0	5,742774606E-1	9,888128215E0
8,797116290E-1	-1,507478207E-1	9,865608215E0	5,814558864E-1	9,883877848E0
8,809076180E-1	-1,579262912E-1	9,863214493E0	5,838487148E-1	9,881741758E0
8,821036080E-1	-1,579262912E-1	9,858428955E0	5,934200287E-1	9,877535599E0
8,832995970E-1	-1,651047617E-1	9,844072342E0	6,053841114E-1	9,864051388E0
8,844955350E-1	-1,746760458E-1	9,829715729E0	6,125625968E-1	9,850332784E0
8,856915250E-1	-1,722832322E-1	9,810572624E0	6,221339107E-1	9,831788613E0
8,868875140E-1	-1,698904037E-1	9,791430473E0	6,340979934E-1	9,813411931E0
8,880835040E-1	-1,651047617E-1	9,784252167E0	6,436693072E-1	9,806791536E0
8,892794930E-1	-1,603191197E-1	9,777072906E0	6,532405615E-1	9,800182655E0
8,904754310E-1	-1,483550072E-1	9,760323524E0	6,580262184E-1	9,783604807E0
8,916714200E-1	-1,459621787E-1	9,745966911E0	6,675975323E-1	9,769895724E0
8,928674100E-1	-1,579262912E-1	9,738788605E0	6,771687865E-1	9,763580376E0
8,940634000E-1	-1,674975902E-1	9,729216576E0	6,843472719E-1	9,754693322E0
8,952593890E-1	-1,674975902E-1	9,719645500E0	6,891329288E-1	9,745484507E0
8,964553270E-1	-1,651047617E-1	9,707681656E0	6,891329288E-1	9,733511540E0
8,976513160E-1	-1,651047617E-1	9,686145782E0	6,867401004E-1	9,711863450E0
8,988473060E-1	-1,674975902E-1	9,671789169E0	6,819544435E-1	9,697248220E0
9,000432950E-1	-1,651047617E-1	9,657432556E0	6,819544435E-1	9,682888258E0
9,012392850E-1	-1,555334777E-1	9,645467758E0	6,675975323E-1	9,669794486E0
9,024352750E-1	-1,555334777E-1	9,640682220E0	6,508477330E-1	9,663878471E0
9,036312120E-1	-1,627119333E-1	9,626325607E0	6,364908218E-1	9,648717036E0
9,048272020E-1	-1,674975902E-1	9,621540070E0	6,125625968E-1	9,642474874E0
9,060231910E-1	-1,651047617E-1	9,621540070E0	5,838487148E-1	9,640652064E0
9,072191810E-1	-1,555334777E-1	9,621540070E0	5,623133183E-1	9,639212636E0
9,084151700E-1	-1,483550072E-1	9,619147301E0	5,455635786E-1	9,635748213E0
9,096111080E-1	-1,387837082E-1	9,616754532E0	5,383850932E-1	9,632813045E0
9,108070970E-1	-1,316052526E-1	9,616754532E0	5,264210105E-1	9,632051015E0
9,120030870E-1	-1,339980662E-1	9,623932838E0	5,120640397E-1	9,638477491E0
9,131990770E-1	-1,339980662E-1	9,631111145E0	5,072783828E-1	9,645392098E0
9,143950660E-1	-1,339980662E-1	9,626325607E0	5,000999570E-1	9,640238594E0
9,155910040E-1	-1,387837082E-1	9,616754532E0	4,881358147E-1	9,630135265E0
9,167869930E-1	-1,387837082E-1	9,611968994E0	4,737788737E-1	9,624638969E0
9,179829830E-1	-1,292124242E-1	9,614361763E0	4,785645306E-1	9,627132074E0
9,191789720E-1	-1,220339537E-1	9,628718376E0	4,833501875E-1	9,641614868E0
9,203749620E-1	-1,220339537E-1	9,645467758E0	4,809573591E-1	9,658222432E0
9,215709520E-1	-1,220339537E-1	9,659825325E0	4,761717021E-1	9,672324286E0
9,227668890E-1	-1,339980662E-1	9,671789169E0	4,761717021E-1	9,684430841E0
9,239628790E-1	-1,459621787E-1	9,671789169E0	4,809573591E-1	9,684840250E0
9,251588680E-1	-1,387837082E-1	9,669396400E0	4,857429862E-1	9,682584052E0
9,263548580E-1	-1,411765367E-1	9,678967476E0	4,881358147E-1	9,692296879E0
9,275508470E-1	-1,435693651E-1	9,681360245E0	4,857429862E-1	9,694601312E0
9,287467850E-1	-1,411765367E-1	9,683753014E0	4,809573591E-1	9,696717136E0
9,299427750E-1	-1,411765367E-1	9,707681656E0	4,785645306E-1	9,720495767E0
9,311387640E-1	-1,339980662E-1	9,722038269E0	4,881358147E-1	9,735207248E0
9,323347540E-1	-1,172483116E-1	9,714859962E0	5,048855543E-1	9,728677232E0
9,335307430E-1	-1,076770201E-1	9,710074425E0	5,072783828E-1	9,723912332E0
9,347266810E-1	-1,100698411E-1	9,731609344E0	5,024927258E-1	9,745195470E0
9,359226700E-1	-1,052841991E-1	9,745966911E0	4,953143001E-1	9,759113282E0
9,371186600E-1	-9,810572863E-2	9,755537987E0	4,953143001E-1	9,768596747E0
9,383146500E-1	-8,853443712E-2	9,769894600E0	4,905286431E-1	9,782601760E0
9,395106390E-1	-8,374879509E-2	9,777072906E0	4,689932466E-1	9,788673207E0
9,407066290E-1	-8,853443712E-2	9,779465675E0	4,474578202E-1	9,790097331E0
9,419025660E-1	-9,810572863E-2	9,779465675E0	4,307080805E-1	9,789437322E0
9,430985560E-1	-1,052841991E-1	9,769894600E0	4,211367965E-1	9,779533806E0
9,442945450E-1	-1,052841991E-1	9,750752449E0	4,187439680E-1	9,760307608E0
9,454905350E-1	-1,052841991E-1	9,736394882E0	4,139583111E-1	9,745759670E0
9,466865250E-1	-1,052841991E-1	9,734002113E0	4,115654826E-1	9,743267832E0
9,478824620E-1	-1,076770201E-1	9,729216576E0	4,235295951E-1	9,739025969E0
9,490784520E-1	-1,148554832E-1	9,726823807E0	4,283152521E-1	9,736926985E0
9,502744410E-1	-1,196411327E-1	9,729216576E0	4,331009090E-1	9,739586520E0
9,514704310E-1	-1,363908947E-1	9,734002113E0	4,546363056E-1	9,745567905E0
9,526664200E-1	-1,483550072E-1	9,731609344E0	4,737788737E-1	9,744264778E0
9,538623580E-1	-1,507478207E-1	9,717252731E0	4,905286431E-1	9,730793590E0
9,550583470E-1	-1,627119333E-1	9,717252731E0	5,096712112E-1	9,731970025E0
9,562543370E-1	-1,698904037E-1	9,729216576E0	5,335994363E-1	9,745319199E0
9,574503270E-1	-1,674975902E-1	9,734002113E0	5,575276613E-1	9,751394243E0
9,586463160E-1	-1,459621787E-1	9,729216576E0	5,694918036E-1	9,746962658E0
9,598423060E-1	-1,316052526E-1	9,724431038E0	5,790630579E-1	9,742545508E0
9,610382430E-1	-1,387837082E-1	9,722038269E0	5,886343718E-1	9,740830532E0
9,622342330E-1	-1,387837082E-1	9,717252731E0	5,982056856E-1	9,736637592E0
9,634302220E-1	-1,387837082E-1	9,719645500E0	6,077769399E-1	9,739618184E0
9,646262120E-1	-1,316052526E-1	9,734002113E0	6,077769399E-1	9,753845903E0
9,658222020E-1	-1,196411327E-1	9,743574142E0	6,101697683E-1	9,763393786E0
9,670181390E-1	-1,172483116E-1	9,748359680E0	6,029912829E-1	9,767694821E0
9,682141290E-1	-1,292124242E-1	9,757930756E0	5,958128572E-1	9,776957678E0
9,694101180E-1	-1,435693651E-1	9,753145218E0	6,029912829E-1	9,772822125E0
9,706061080E-1	-1,627119333E-1	9,745966911E0	6,077769399E-1	9,766255117E0
9,718020970E-1	-1,746760458E-1	9,753145218E0	6,029912829E-1	9,773328596E0
9,729980870E-1	-1,674975902E-1	9,760323524E0	5,934200287E-1	9,779781085E0
9,741940250E-1	-1,722832322E-1	9,755537987E0	5,910272002E-1	9,774943277E0
9,753900140E-1	-1,794617027E-1	9,757930756E0	5,934200287E-1	9,777605354E0
9,765860040E-1	-1,962114573E-1	9,760323524E0	5,982056856E-1	9,780606540E0
9,777819930E-1	-2,129612118E-1	9,762716293E0	6,005984545E-1	9,783491218E0
9,789779830E-1	-2,177468538E-1	9,772287369E0	5,982056856E-1	9,793000774E0
9,801739200E-1	-2,177468538E-1	9,774680138E0	5,934200287E-1	9,795097387E0
9,813699100E-1	-2,153540403E-1	9,779465675E0	5,982056856E-1	9,800111035E0
9,825659000E-1	-2,273181528E-1	9,779465675E0	6,077769399E-1	9,800970118E0
9,837618890E-1	-2,321037948E-1	9,779465675E0	6,005984545E-1	9,800639753E0
9,849578790E-1	-2,368894368E-1	9,784252167E0	5,886343718E-1	9,804804817E0
9,861538160E-1	-2,392822653E-1	9,791430473E0	5,838487148E-1	9,811740215E0
9,873498060E-1	-2,273181528E-1	9,784252167E0	5,766702294E-1	9,803867225E0
9,885457950E-1	-2,273181528E-1	9,786644936E0	5,766702294E-1	9,806255207E0
9,897417850E-1	-2,225325108E-1	9,789037704E0	5,742774606E-1	9,808393064E0
9,909377750E-1	-2,129612118E-1	9,774680138E0	5,670989752E-1	9,793432775E0
9,921337120E-1	-2,057827413E-1	9,767501831E0	5,551348329E-1	9,785428618E0
9,933297020E-1	-1,962114573E-1	9,767501831E0	5,407779217E-1	9,784428022E0
9,945256910E-1	-2,009970993E-1	9,774680138E0	5,312066078E-1	9,791167044E0
9,957216810E-1	-2,009970993E-1	9,784252167E0	5,216353536E-1	9,800208862E0
9,969176700E-1	-1,938186288E-1	9,777072906E0	5,192425251E-1	9,792769428E0
9,981136600E-1	-1,794617027E-1	9,769894600E0	5,216353536E-1	9,785456067E0
9,993095970E-1	-1,698904037E-1	9,765109062E0	5,192425251E-1	9,780379877E0
1,000505587E0	-1,746760458E-1	9,760323524E0	5,192425251E-1	9,775686156E0
1,001701577E0	-1,770688742E-1	9,760323524E0	5,335994363E-1	9,776502291E0
1,002897566E0	-1,674975902E-1	9,753145218E0	5,479564071E-1	9,769961786E0
1,004093556E0	-1,603191197E-1	9,750752449E0	5,527420044E-1	9,767722317E0
1,005289493E0	-1,531406492E-1	9,753145218E0	5,551348329E-1	9,770131441E0
1,006485483E0	-1,507478207E-1	9,755537987E0	5,551348329E-1	9,772482847E0
1,007681472E0	-1,579262912E-1	9,762716293E0	5,623133183E-1	9,780172105E0
1,008877462E0	-1,531406492E-1	9,762716293E0	5,694918036E-1	9,780511357E0
1,010073452E0	-1,387837082E-1	9,762716293E0	5,742774606E-1	9,780576923E0
1,011269441E0	-1,316052526E-1	9,772287369E0	5,790630579E-1	9,790313294E0
1,012465379E0	-1,363908947E-1	9,772287369E0	5,790630579E-1	9,790378793E0
1,013661368E0	-1,339980662E-1	9,769894600E0	5,718846321E-1	9,787535339E0
1,014857358E0	-1,316052526E-1	9,765109062E0	5,670989752E-1	9,782447352E0
1,016053347E0	-1,244267747E-1	9,762716293E0	5,670989752E-1	9,779964862E0
1,017249337E0	-1,148554832E-1	9,779465675E0	5,623133183E-1	9,796292000E0
1,018445275E0	-1,172483116E-1	9,791430473E0	5,479564071E-1	9,807451968E0
1,019641264E0	-1,196411327E-1	9,791430473E0	5,312066078E-1	9,806559293E0
1,020837254E0	-1,244267747E-1	9,779465675E0	5,216353536E-1	9,794158175E0
1,022033243E0	-1,244267747E-1	9,784252167E0	5,288137794E-1	9,799322247E0
1,023229233E0	-1,124626622E-1	9,803394318E0	5,359922647E-1	9,818679937E0
1,024425170E0	-1,004985496E-1	9,817750931E0	5,288137794E-1	9,832495986E0
1,025621160E0	-9,092725813E-2	9,812965393E0	5,335994363E-1	9,827883085E0
1,026817150E0	-9,092725813E-2	9,817750931E0	5,455635786E-1	9,833317890E0
1,028013139E0	-1,028913707E-1	9,829715729E0	5,551348329E-1	9,845916546E0
1,029209129E0	-1,028913707E-1	9,834501266E0	5,647061467E-1	9,851238238E0
1,030405066E0	-9,571290761E-2	9,839286804E0	5,766702294E-1	9,856636055E0
1,031601056E0	-9,332008660E-2	9,853643417E0	5,886343718E-1	9,871650706E0
1,032797045E0	-1,004985496E-1	9,856036186E0	6,005984545E-1	9,874830012E0
1,033993035E0	-1,124626622E-1	9,844072342E0	6,173482537E-1	9,864052260E0
1,035189025E0	-1,196411327E-1	9,836894035E0	6,293123364E-1	9,857729570E0
1,036385014E0	-1,244267747E-1	9,841679573E0	6,340979934E-1	9,862870734E0
1,037580952E0	-1,244267747E-1	9,848857880E0	6,388836503E-1	9,870342237E0
1,038776941E0	-1,196411327E-1	9,860821724E0	6,436693072E-1	9,882531520E0
1,039972931E0	-1,172483116E-1	9,870393753E0	6,460621357E-1	9,892209879E0
1,041168920E0	-1,172483116E-1	9,879964828E0	6,484549642E-1	9,901916280E0
1,042364910E0	-1,172483116E-1	9,882357597E0	6,532405615E-1	9,904618220E0
1,043560847E0	-1,172483116E-1	9,875179291E0	6,580262184E-1	9,897773067E0
1,044756837E0	-1,268195957E-1	9,875179291E0	6,652047038E-1	9,898370903E0
1,045952827E0	-1,339980662E-1	9,879964828E0	6,699903607E-1	9,903562368E0
1,047148816E0	-1,363908947E-1	9,877572060E0	6,675975323E-1	9,901046345E0
1,048344806E0	-1,292124242E-1	9,882357597E0	6,675975323E-1	9,905724305E0
1,049540795E0	-1,148554832E-1	9,877572060E0	6,652047038E-1	9,900612045E0
1,050736733E0	-1,052841991E-1	9,865608215E0	6,580262184E-1	9,888089235E0
1,051932722E0	-1,028913707E-1	9,872786522E0	6,604190469E-1	9,895385473E0
1,053128712E0	-9,571290761E-2	9,872786522E0	6,508477330E-1	9,894679249E0
1,054324597E0	-8,853443712E-2	9,863214493E0	6,340979934E-1	9,883972822E0
1,055520483E0	-8,135596663E-2	9,846465111E0	6,173482537E-1	9,866134645E0
1,056716629E0	-8,135596663E-2	9,839286804E0	6,029912829E-1	9,858082070E0
1,057912618E0	-1,004985496E-1	9,841679573E0	6,029912829E-1	9,860646797E0
1,059108608E0	-1,100698411E-1	9,841679573E0	6,029912829E-1	9,860748992E0
1,060304597E0	-1,100698411E-1	9,839286804E0	5,958128572E-1	9,857924383E0
1,061500587E0	-1,220339537E-1	9,839286804E0	5,886343718E-1	9,857633972E0
1,062696525E0	-1,411765367E-1	9,836894035E0	5,838487148E-1	9,855216608E0
1,063892514E0	-1,435693651E-1	9,841679573E0	5,742774606E-1	9,859465684E0
1,065088504E0	-1,459621787E-1	9,851250648E0	5,647061467E-1	9,868502284E0
1,066284493E0	-1,483550072E-1	9,853643417E0	5,694918036E-1	9,871201483E0
1,067480483E0	-1,435693651E-1	9,860821724E0	5,790630579E-1	9,878852730E0
1,068676420E0	-1,459621787E-1	9,860821724E0	5,742774606E-1	9,878608436E0
1,069872410E0	-1,674975902E-1	9,851250648E0	5,647061467E-1	9,868844300E0
1,071068400E0	-1,818545163E-1	9,844072342E0	5,623133183E-1	9,861796368E0
1,072264389E0	-1,770688742E-1	9,839286804E0	5,599204898E-1	9,856796090E0
1,073460379E0	-1,722832322E-1	9,846465111E0	5,551348329E-1	9,863606408E0
1,074656368E0	-1,794617027E-1	9,851250648E0	5,527420044E-1	9,868377251E0
1,075852306E0	-1,842473447E-1	9,853643417E0	5,599204898E-1	9,871258615E0
1,077048295E0	-1,818545163E-1	9,851250648E0	5,647061467E-1	9,869098411E0
1,078244285E0	-1,746760458E-1	9,844072342E0	5,670989752E-1	9,861940643E0
1,079440275E0	-1,722832322E-1	9,834501266E0	5,694918036E-1	9,852482813E0
1,080636264E0	-1,722832322E-1	9,832108498E0	5,694918036E-1	9,850094413E0
1,081832202E0	-1,722832322E-1	9,829715729E0	5,694918036E-1	9,847706014E0
1,083028191E0	-1,722832322E-1	9,829715729E0	5,718846321E-1	9,847844681E0
1,084224181E0	-1,674975902E-1	9,839286804E0	5,694918036E-1	9,857177140E0
1,085420170E0	-1,555334777E-1	9,841679573E0	5,766702294E-1	9,859786815E0
1,086616160E0	-1,555334777E-1	9,829715729E0	5,742774606E-1	9,847705142E0
1,087812150E0	-1,555334777E-1	9,820143700E0	5,718846321E-1	9,838011231E0
1,089008087E0	-1,555334777E-1	9,812965393E0	5,790630579E-1	9,831266169E0
1,090204077E0	-1,531406492E-1	9,817750931E0	5,790630579E-1	9,836005257E0
1,091400066E0	-1,435693651E-1	9,812965393E0	5,694918036E-1	9,830525056E0
1,092596056E0	-1,411765367E-1	9,805787086E0	5,670989752E-1	9,823186471E0
1,093792045E0	-1,483550072E-1	9,801001549E0	5,647061467E-1	9,818377340E0
1,094987983E0	-1,531406492E-1	9,796216011E0	5,599204898E-1	9,813399571E0
1,096183972E0	-1,627119333E-1	9,793823242E0	5,551348329E-1	9,810893107E0
1,097379962E0	-1,818545163E-1	9,789037704E0	5,455635786E-1	9,805915045E0
1,098575952E0	-1,866401732E-1	9,786644936E0	5,383850932E-1	9,803219479E0
1,099771941E0	-1,842473447E-1	9,774680138E0	5,431707501E-1	9,791493928E0
1,100967879E0	-1,914258152E-1	9,767501831E0	5,575276613E-1	9,785273269E0
1,102163868E0	-1,914258152E-1	9,772287369E0	5,599204898E-1	9,790186679E0
1,103359858E0	-1,818545163E-1	9,767501831E0	5,551348329E-1	9,784954664E0
1,104555847E0	-1,674975902E-1	9,762716293E0	5,575276613E-1	9,780057360E0
1,105751837E0	-1,459621787E-1	9,762716293E0	5,599204898E-1	9,779848942E0
1,106947775E0	-1,268195957E-1	9,748359680E0	5,599204898E-1	9,765250156E0
1,108143764E0	-1,172483116E-1	9,729216576E0	5,647061467E-1	9,746296495E0
1,109339754E0	-1,100698411E-1	9,722038269E0	5,670989752E-1	9,739186040E0
1,110535743E0	-1,004985496E-1	9,724431038E0	5,718846321E-1	9,741750921E0
1,111731733E0	-9,332008660E-2	9,714859962E0	5,814558864E-1	9,732692519E0
1,112927722E0	-8,614161611E-2	9,714859962E0	5,886343718E-1	9,733057839E0
1,114123660E0	-7,896314561E-2	9,736394882E0	5,910272002E-1	9,754636520E0
1,115319650E0	-8,374879509E-2	9,738788605E0	6,077769399E-1	9,758094597E0
1,116515639E0	-8,614161611E-2	9,724431038E0	6,197410822E-1	9,744539927E0
1,117711629E0	-8,374879509E-2	9,724431038E0	6,245267391E-1	9,744824602E0
1,118907618E0	-8,135596663E-2	9,736394882E0	6,173482537E-1	9,756286330E0
1,120103556E0	-8,374879509E-2	9,741181374E0	5,958128572E-1	9,759744944E0
1,121299545E0	-8,853443712E-2	9,736394882E0	5,718846321E-1	9,753577584E0
1,122495535E0	-9,092725813E-2	9,726823807E0	5,479564071E-1	9,742670340E0
1,123691525E0	-8,374879509E-2	9,719645500E0	5,288137794E-1	9,734380644E0
1,124887514E0	-7,657032460E-2	9,719645500E0	5,072783828E-1	9,733175382E0
1,126083452E0	-6,699903309E-2	9,729216576E0	4,857429862E-1	9,741565084E0
1,127279441E0	-6,699903309E-2	9,722038269E0	4,618147612E-1	9,733231213E0
1,128475431E0	-6,699903309E-2	9,710074425E0	4,522434771E-1	9,720831156E0
1,129671420E0	-6,699903309E-2	9,707681656E0	4,450650215E-1	9,718109635E0
1,130867410E0	-7,417750359E-2	9,707681656E0	4,426721931E-1	9,718052485E0
1,132063347E0	-7,896314561E-2	9,714859962E0	4,594219327E-1	9,726037620E0
1,133259337E0	-8,135596663E-2	9,717252731E0	4,666004181E-1	9,728788999E0
1,134455327E0	-8,374879509E-2	9,719645500E0	4,594219327E-1	9,730857671E0
1,135651316E0	-8,853443712E-2	9,714859962E0	4,546363056E-1	9,725895157E0
1,136847306E0	-9,571290761E-2	9,707681656E0	4,498506486E-1	9,718570353E0
1,138043295E0	-1,124626622E-1	9,712467194E0	4,498506486E-1	9,723529835E0
1,139239233E0	-1,244267747E-1	9,724431038E0	4,450650215E-1	9,735405688E0
1,140435222E0	-1,268195957E-1	9,729216576E0	4,474578202E-1	9,740326323E0
1,141631212E0	-1,244267747E-1	9,717252731E0	4,498506486E-1	9,728455595E0
1,142827202E0	-1,148554832E-1	9,702896118E0	4,594219327E-1	9,714445603E0
1,144023191E0	-1,196411327E-1	9,702896118E0	4,642075896E-1	9,714730864E0
1,145219129E0	-1,387837082E-1	9,700503349E0	4,594219327E-1	9,712368128E0
1,146415118E0	-1,483550072E-1	9,698110580E0	4,522434771E-1	9,709782809E0
1,147611108E0	-1,483550072E-1	9,690931320E0	4,522434771E-1	9,702612186E0
1,148807097E0	-1,531406492E-1	9,681360245E0	4,642075896E-1	9,693692637E0
1,150003087E0	-1,651047617E-1	9,674181938E0	4,666004181E-1	9,686834968E0
1,151199077E0	-1,818545163E-1	9,671789169E0	4,594219327E-1	9,684402166E0
1,152395014E0	-1,986042857E-1	9,669396400E0	4,618147612E-1	9,682455437E0
1,153591004E0	-2,009970993E-1	9,671789169E0	4,785645306E-1	9,685707490E0
1,154786993E0	-2,009970993E-1	9,678967476E0	4,857429862E-1	9,693232561E0
1,155982983E0	-1,986042857E-1	9,674181938E0	4,881358147E-1	9,688524986E0
1,157178920E0	-1,914258152E-1	9,671789169E0	4,977070987E-1	9,686478304E0
1,158374910E0	-1,986042857E-1	9,683753014E0	5,120640397E-1	9,699315732E0
1,159570900E0	-2,033899277E-1	9,695717812E0	5,288137794E-1	9,712257995E0
1,160766889E0	-2,153540403E-1	9,700503349E0	5,407779217E-1	9,717951603E0
1,161962879E0	-2,344966233E-1	9,690931320E0	5,551348329E-1	9,709650519E0
1,163158868E0	-2,416750938E-1	9,686145782E0	5,670989752E-1	9,705742023E0
1,164354806E0	-2,392822653E-1	9,686145782E0	5,718846321E-1	9,705963536E0
1,165550795E0	-2,273181528E-1	9,686145782E0	5,694918036E-1	9,705535254E0
1,166746785E0	-2,177468538E-1	9,683753014E0	5,742774606E-1	9,703209815E0
1,167942775E0	-2,129612118E-1	9,690931320E0	5,814558864E-1	9,710694789E0
1,169138764E0	-2,033899277E-1	9,693324089E0	5,814558864E-1	9,712877550E0
1,170334702E0	-1,962114573E-1	9,681360245E0	5,790630579E-1	9,700646842E0
1,171530691E0	-2,009970993E-1	9,669396400E0	5,814558864E-1	9,688948216E0
1,172726681E0	-2,033899277E-1	9,674181938E0	5,814558864E-1	9,693774011E0
1,173922670E0	-1,914258152E-1	9,678967476E0	5,742774606E-1	9,697878626E0
1,175118660E0	-1,866401732E-1	9,676574707E0	5,647061467E-1	9,694834998E0
1,176314650E0	-1,866401732E-1	9,676574707E0	5,694918036E-1	9,695114931E0
1,177510587E0	-1,794617027E-1	9,690931320E0	5,766702294E-1	9,709732484E0
1,178706577E0	-1,746760458E-1	9,695717812E0	5,718846321E-1	9,714139573E0
1,179902566E0	-1,722832322E-1	9,688538551E0	5,718846321E-1	9,706931173E0
1,181098556E0	-1,627119333E-1	9,690931320E0	5,790630579E-1	9,709579757E0
1,182294545E0	-1,579262912E-1	9,690931320E0	5,886343718E-1	9,710076261E0
1,183490483E0	-1,507478207E-1	9,698110580E0	5,838487148E-1	9,716838635E0
1,184686472E0	-1,507478207E-1	9,719645500E0	5,814558864E-1	9,738188974E0
1,185882462E0	-1,555334777E-1	9,734002113E0	5,910272002E-1	9,753168765E0
1,187078452E0	-1,555334777E-1	9,731609344E0	5,910272002E-1	9,750780699E0
1,188274441E0	-1,507478207E-1	9,731609344E0	5,886343718E-1	9,750560792E0
1,189470379E0	-1,292124242E-1	9,743574142E0	5,862415433E-1	9,762049583E0
1,190666368E0	-1,220339537E-1	9,755537987E0	5,910272002E-1	9,774186761E0
1,191862358E0	-1,292124242E-1	9,760323524E0	5,910272002E-1	9,779055389E0
1,193058347E0	-1,196411327E-1	9,760323524E0	5,910272002E-1	9,778933605E0
1,194254337E0	-1,172483116E-1	9,757930756E0	5,838487148E-1	9,776085061E0
1,195450327E0	-1,292124242E-1	9,753145218E0	5,623133183E-1	9,770196199E0
1,196646264E0	-1,435693651E-1	9,748359680E0	5,503492355E-1	9,764937936E0
1,197842254E0	-1,507478207E-1	9,750752449E0	5,527420044E-1	9,767569910E0
1,199038243E0	-1,579262912E-1	9,753145218E0	5,527420044E-1	9,770071959E0
1,200234233E0	-1,555334777E-1	9,753145218E0	5,455635786E-1	9,769630081E0
1,201430222E0	-1,459621787E-1	9,748359680E0	5,335994363E-1	9,764043720E0
1,202626160E0	-1,387837082E-1	9,745966911E0	5,264210105E-1	9,761160332E0
1,203822150E0	-1,387837082E-1	9,750752449E0	5,288137794E-1	9,766067697E0
1,205018139E0	-1,339980662E-1	9,753145218E0	5,335994363E-1	9,768650136E0
1,206214129E0	-1,387837082E-1	9,753145218E0	5,264210105E-1	9,768327474E0
1,207410118E0	-1,411765367E-1	9,757930756E0	5,144568682E-1	9,772502715E0
1,208606108E0	-1,268195957E-1	9,762716293E0	5,096712112E-1	9,776833709E0
1,209802045E0	-1,268195957E-1	9,772287369E0	5,144568682E-1	9,786641380E0
1,210998035E0	-1,387837082E-1	9,777072906E0	5,192425251E-1	9,791834779E0
1,212194025E0	-1,483550072E-1	9,777072906E0	5,216353536E-1	9,792102291E0
1,213390014E0	-1,627119333E-1	9,769894600E0	5,168496966E-1	9,784909263E0
1,214586004E0	-1,842473447E-1	9,769894600E0	5,168496966E-1	9,785291063E0
1,215781993E0	-1,866401732E-1	9,774680138E0	5,264210105E-1	9,790624364E0
1,216977931E0	-1,890329868E-1	9,772287369E0	5,264210105E-1	9,788281410E0
1,218173920E0	-1,914258152E-1	9,777072906E0	5,312066078E-1	9,793364025E0
1,219369910E0	-1,938186288E-1	9,779465675E0	5,335994363E-1	9,795929916E0
1,220565900E0	-1,962114573E-1	9,777072906E0	5,383850932E-1	9,793850727E0
1,221761837E0	-1,866401732E-1	9,767501831E0	5,455635786E-1	9,784506436E0
1,222957827E0	-1,866401732E-1	9,762716293E0	5,407779217E-1	9,779463418E0
1,224153816E0	-1,962114573E-1	9,772287369E0	5,312066078E-1	9,788681209E0
1,225349806E0	-2,057827413E-1	9,774680138E0	5,335994363E-1	9,791396565E0
1,226545795E0	-2,153540403E-1	9,769894600E0	5,407779217E-1	9,787219146E0
1,227741733E0	-2,225325108E-1	9,757930756E0	5,527420044E-1	9,776106437E0
1,228937722E0	-2,297109663E-1	9,745966911E0	5,647061467E-1	9,765015678E0
1,230133712E0	-2,368894368E-1	9,736394882E0	5,670989752E-1	9,755772812E0
1,231329702E0	-2,344966233E-1	9,724431038E0	5,766702294E-1	9,744336623E0
1,232525691E0	-2,297109663E-1	9,719645500E0	5,958128572E-1	9,740598993E0
1,233721681E0	-2,392822653E-1	9,734002113E0	6,101697683E-1	9,756042245E0
1,234917618E0	-2,512463629E-1	9,741181374E0	6,125625968E-1	9,763655679E0
1,236113608E0	-2,464607358E-1	9,736394882E0	6,101697683E-1	9,758608269E0
1,237309597E0	-2,464607358E-1	9,729216576E0	6,029912829E-1	9,750999772E0
1,238505587E0	-2,488535494E-1	9,724431038E0	6,005984545E-1	9,746137984E0
1,239701577E0	-2,440679073E-1	9,726823807E0	6,053841114E-1	9,748700448E0
1,240897514E0	-2,321037948E-1	9,726823807E0	6,101697683E-1	9,748706616E0
1,242093504E0	-2,153540403E-1	9,722038269E0	6,149554253E-1	9,743848092E0
1,243289493E0	-2,057827413E-1	9,722038269E0	6,125625968E-1	9,743490523E0
1,244485483E0	-1,914258152E-1	9,719645500E0	6,077769399E-1	9,740510526E0
1,245681472E0	-1,938186288E-1	9,710074425E0	5,934200287E-1	9,730121188E0
1,246877410E0	-1,986042857E-1	9,695717812E0	5,910272002E-1	9,715744989E0
1,248073400E0	-1,818545163E-1	9,693324089E0	5,910272002E-1	9,713028164E0
1,249269389E0	-1,651047617E-1	9,700503349E0	5,838487148E-1	9,719460074E0
1,250465379E0	-1,531406492E-1	9,719645500E0	5,790630579E-1	9,738083730E0
1,251661368E0	-1,435693651E-1	9,731609344E0	5,814558864E-1	9,750021720E0
1,252857306E0	-1,435693651E-1	9,726823807E0	5,790630579E-1	9,745102747E0
1,254053295E0	-1,435693651E-1	9,726823807E0	5,790630579E-1	9,745102747E0
1,255249285E0	-1,507478207E-1	9,736394882E0	5,814558864E-1	9,754906517E0
1,256445275E0	-1,627119333E-1	9,741181374E0	5,886343718E-1	9,760306355E0
1,257641264E0	-1,579262912E-1	9,748359680E0	5,862415433E-1	9,767248144E0
1,258837254E0	-1,507478207E-1	9,750752449E0	5,718846321E-1	9,768671878E0
1,260033191E0	-1,507478207E-1	9,767501831E0	5,718846321E-1	9,785390588E0
1,261229181E0	-1,531406492E-1	9,789037704E0	5,790630579E-1	9,807345475E0
1,262425170E0	-1,507478207E-1	9,796216011E0	5,886343718E-1	9,815042713E0
1,263621160E0	-1,483550072E-1	9,793823242E0	6,005984545E-1	9,813343029E0
1,264817150E0	-1,555334777E-1	9,796216011E0	6,029912829E-1	9,815988859E0
1,266013139E0	-1,579262912E-1	9,808179855E0	6,101697683E-1	9,828409838E0
1,267209077E0	-1,555334777E-1	9,822537422E0	6,245267391E-1	9,843600242E0
1,268405066E0	-1,579262912E-1	9,827322960E0	6,436693072E-1	9,849646057E0
1,269601056E0	-1,555334777E-1	9,822537422E0	6,556333899E-1	9,845622744E0
1,270797045E0	-1,603191197E-1	9,822537422E0	6,580262184E-1	9,845859136E0
1,271992983E0	-1,698904037E-1	9,834501266E0	6,532405615E-1	9,857636691E0
1,273188972E0	-1,866401732E-1	9,841679573E0	6,436693072E-1	9,864471681E0
1,274384962E0	-1,986042857E-1	9,848857880E0	6,317051649E-1	9,871093993E0
1,275580952E0	-2,081755698E-1	9,856036186E0	6,245267391E-1	9,877996761E0
1,276776941E0	-2,201396823E-1	9,863214493E0	6,173482537E-1	9,884967399E0
1,277972931E0	-2,297109663E-1	9,868000984E0	6,125625968E-1	9,889663467E0
1,279168868E0	-2,297109663E-1	9,870393753E0	6,077769399E-1	9,891755798E0
1,280364858E0	-2,416750938E-1	9,875179291E0	5,982056856E-1	9,896232764E0
1,281560847E0	-2,512463629E-1	9,894321442E0	5,934200287E-1	9,915284608E0
1,282756837E0	-2,536391914E-1	9,906285286E0	5,910272002E-1	9,927141288E0
1,283952827E0	-2,679961324E-1	9,899106979E0	5,814558864E-1	9,919789910E0
1,285148764E0	-2,512463629E-1	9,894321442E0	5,647061467E-1	9,913607545E0
1,286344754E0	-2,249253243E-1	9,891928673E0	5,503492355E-1	9,909779440E0
1,287540743E0	-2,273181528E-1	9,887143135E0	5,359922647E-1	9,904269818E0
1,288736733E0	-2,321037948E-1	9,875179291E0	5,192425251E-1	9,891544419E0
1,289932722E0	-2,297109663E-1	9,870393753E0	5,072783828E-1	9,886089789E0
1,291128712E0	-2,249253243E-1	9,870393753E0	5,024927258E-1	9,885735338E0
1,292324650E0	-2,129612118E-1	9,858428955E0	5,024927258E-1	9,873523833E0
1,293520639E0	-2,153540403E-1	9,841679573E0	4,929214716E-1	9,856368792E0
1,294716629E0	-2,201396823E-1	9,820143700E0	4,881358147E-1	9,834732347E0
1,295912618E0	-2,129612118E-1	9,817750931E0	4,977070987E-1	9,832664856E0
1,297108556E0	-2,033899277E-1	9,827322960E0	5,096712112E-1	9,842632207E0
1,298304545E0	-2,033899277E-1	9,812965393E0	5,168496966E-1	9,828671878E0
1,299500535E0	-2,057827413E-1	9,793823242E0	5,312066078E-1	9,810377194E0
1,300696525E0	-1,986042857E-1	9,789037704E0	5,527420044E-1	9,806641962E0
1,301892514E0	-1,818545163E-1	9,779465675E0	5,647061467E-1	9,797444207E0
1,303088504E0	-1,674975902E-1	9,757930756E0	5,647061467E-1	9,775692359E0
1,304284441E0	-1,555334777E-1	9,745966911E0	5,742774606E-1	9,764110625E0
1,305480431E0	-1,387837082E-1	9,748359680E0	5,838487148E-1	9,766814050E0
1,306676420E0	-1,124626622E-1	9,748359680E0	5,814558864E-1	9,766332743E0
1,307872410E0	-9,571290761E-2	9,743574142E0	5,742774606E-1	9,760952445E0
1,309068400E0	-8,614161611E-2	9,738788605E0	5,623133183E-1	9,755389287E0
1,310264389E0	-7,178468257E-2	9,729216576E0	5,527420044E-1	9,745169672E0
1,311460327E0	-5,982056633E-2	9,719645500E0	5,431707501E-1	9,734994690E0
1,312656316E0	-5,982056633E-2	9,710074425E0	5,288137794E-1	9,724647441E0
1,313852306E0	-5,742774159E-2	9,693324089E0	5,288137794E-1	9,707907800E0
1,315048295E0	-5,742774159E-2	9,683753014E0	5,312066078E-1	9,698481883E0
1,316244285E0	-5,024927482E-2	9,690931320E0	5,216353536E-1	9,705090329E0
1,317440222E0	-3,589234129E-2	9,700503349E0	5,120640397E-1	9,714075513E0
1,318636212E0	-3,110669367E-2	9,695717812E0	5,048855543E-1	9,708904209E0
1,319832202E0	-4,067798331E-2	9,686145782E0	4,929214716E-1	9,698765199E0
1,321028191E0	-4,307080805E-2	9,686145782E0	4,833501875E-1	9,698293799E0
1,322224129E0	-4,307080805E-2	9,686145782E0	4,785645306E-1	9,698056466E0
1,323420118E0	-4,307080805E-2	9,693324089E0	4,666004181E-1	9,704643370E0
1,324616108E0	-2,871387079E-2	9,698110580E0	4,546363056E-1	9,708803607E0
1,325812097E0	-1,674975827E-2	9,688538551E0	4,426721931E-1	9,698660654E0
1,327008087E0	-9,571290575E-3	9,683753014E0	4,283152521E-1	9,693225366E0
1,328204077E0	-4,785645287E-3	9,698110580E0	4,187439680E-1	9,707147791E0
1,329400014E0	-4,785645287E-3	9,722038269E0	4,259224236E-1	9,731364802E0
1,330596004E0	-1,196411345E-2	9,738788605E0	4,378865361E-1	9,748635353E0
1,331791993E0	-2,871387079E-2	9,753145218E0	4,331009090E-1	9,762798908E0
1,332987983E0	-4,307080805E-2	9,769894600E0	4,259224236E-1	9,779269170E0
1,334183972E0	-5,742774159E-2	9,784252167E0	4,283152521E-1	9,793791011E0
1,335379910E0	-6,939185411E-2	9,791430473E0	4,354937077E-1	9,801356065E0
1,336575900E0	-7,896314561E-2	9,801001549E0	4,378865361E-1	9,811096328E0
1,337771889E0	-9,332008660E-2	9,808179855E0	4,331009090E-1	9,818180947E0
1,338967879E0	-1,052841991E-1	9,805787086E0	4,211367965E-1	9,815391044E0
1,340163868E0	-1,268195957E-1	9,810572624E0	4,259224236E-1	9,820632787E0
1,341359858E0	-1,435693651E-1	9,812965393E0	4,426721931E-1	9,823994129E0
1,342555795E0	-1,507478207E-1	9,810572624E0	4,474578202E-1	9,821928457E0
1,343751785E0	-1,507478207E-1	9,815358162E0	4,498506486E-1	9,826817713E0
1,344947775E0	-1,579262912E-1	9,822537422E0	4,450650215E-1	9,833883516E0
1,346143764E0	-1,722832322E-1	9,822537422E0	4,354937077E-1	9,833696034E0
1,347339754E0	-1,770688742E-1	9,824930191E0	4,378865361E-1	9,836277307E0
1,348535691E0	-1,746760458E-1	9,832108498E0	4,354937077E-1	9,843298431E0
1,349731681E0	-1,770688742E-1	9,841679573E0	4,354937077E-1	9,852901348E0
1,350927670E0	-1,938186288E-1	9,844072342E0	4,307080805E-1	9,855396257E0
1,352123660E0	-2,153540403E-1	9,834501266E0	4,307080805E-1	9,846283663E0
1,353319650E0	-2,297109663E-1	9,834501266E0	4,426721931E-1	9,847138719E0
1,354515587E0	-2,464607358E-1	9,848857880E0	4,594219327E-1	9,862647360E0
1,355711577E0	-2,392822653E-1	9,853643417E0	4,761717021E-1	9,868043580E0
1,356907566E0	-2,249253243E-1	9,860821724E0	4,953143001E-1	9,875815548E0
1,358103556E0	-2,201396823E-1	9,858428955E0	5,120640397E-1	9,874173005E0
1,359299545E0	-2,153540403E-1	9,856036186E0	5,264210105E-1	9,872433628E0
1,360495483E0	-2,081755698E-1	9,872786522E0	5,383850932E-1	9,889646570E0
1,361691472E0	-1,962114573E-1	9,868000984E0	5,503492355E-1	9,885283336E0
1,362887462E0	-1,818545163E-1	9,851250648E0	5,647061467E-1	9,869098411E0
1,364083452E0	-1,818545163E-1	9,844072342E0	5,647061467E-1	9,861933095E0
1,365279441E0	-1,818545163E-1	9,848857880E0	5,575276613E-1	9,866301723E0
1,366475431E0	-1,746760458E-1	9,856036186E0	5,599204898E-1	9,873473147E0
1,367671368E0	-1,770688742E-1	9,844072342E0	5,599204898E-1	9,861573131E0
1,368867358E0	-1,603191197E-1	9,832108498E0	5,599204898E-1	9,849343668E0
1,370063347E0	-1,363908947E-1	9,839286804E0	5,551348329E-1	9,855878549E0
1,371259337E0	-1,244267747E-1	9,836894035E0	5,575276613E-1	9,853466567E0
1,372455327E0	-1,052841991E-1	9,827322960E0	5,623133183E-1	9,843960463E0
1,373651316E0	-8,374879509E-2	9,827322960E0	5,599204898E-1	9,843617291E0
1,374847254E0	-7,896314561E-2	9,820143700E0	5,527420044E-1	9,836004330E0
1,376043243E0	-7,178468257E-2	9,820143700E0	5,455635786E-1	9,835548533E0
1,377239233E0	-5,503492057E-2	9,824930191E0	5,335994363E-1	9,839563530E0
1,378435222E0	-4,785645381E-2	9,820143700E0	5,288137794E-1	9,834488118E0
1,379631160E0	-4,546362907E-2	9,810572624E0	5,359922647E-1	9,825308640E0
1,380827150E0	-4,307080805E-2	9,803394318E0	5,335994363E-1	9,817999980E0
1,382023139E0	-3,349951655E-2	9,798608780E0	5,264210105E-1	9,812796509E0
1,383219129E0	-3,349951655E-2	9,796216011E0	5,192425251E-1	9,810024625E0
1,384415118E0	-4,546362907E-2	9,805787086E0	5,144568682E-1	9,819378453E0
1,385611108E0	-5,503492057E-2	9,817750931E0	5,144568682E-1	9,831374678E0
1,386807045E0	-5,503492057E-2	9,822537422E0	5,240281820E-1	9,836659788E0
1,388003035E0	-4,785645381E-2	9,822537422E0	5,359922647E-1	9,837266864E0
1,389199025E0	-3,110669367E-2	9,827322960E0	5,455635786E-1	9,842503940E0
1,390395014E0	-3,110669367E-2	9,824930191E0	5,551348329E-1	9,840650160E0
1,391591004E0	-4,067798331E-2	9,812965393E0	5,551348329E-1	9,828739451E0
1,392786941E0	-4,546362907E-2	9,803394318E0	5,551348329E-1	9,819204742E0
1,393982931E0	-4,546362907E-2	9,786644936E0	5,527420044E-1	9,802347156E0
1,395178920E0	-5,024927482E-2	9,777072906E0	5,527420044E-1	9,792813862E0
1,396374910E0	-5,264209956E-2	9,772287369E0	5,455635786E-1	9,787645847E0
1,397570900E0	-5,742774159E-2	9,767501831E0	5,312066078E-1	9,782104601E0
1,398766837E0	-5,742774159E-2	9,762716293E0	5,192425251E-1	9,776683495E0
1,399962827E0	-4,785645381E-2	9,762716293E0	5,120640397E-1	9,776253334E0
1,401158816E0	-4,785645381E-2	9,774680138E0	5,048855543E-1	9,787827719E0
1,402354806E0	-5,742774159E-2	9,786644936E0	4,953143001E-1	9,799339432E0
1,403550795E0	-5,264209956E-2	9,789037704E0	4,905286431E-1	9,801461560E0
1,404746785E0	-4,785645381E-2	9,779465675E0	4,833501875E-1	9,791520134E0
1,405942722E0	-5,742774159E-2	9,777072906E0	4,761717021E-1	9,788829964E0
1,407138712E0	-6,460621208E-2	9,791430473E0	4,785645306E-1	9,803331510E0
1,408334702E0	-7,178468257E-2	9,791430473E0	4,881358147E-1	9,803853341E0
1,409530691E0	-8,135596663E-2	9,791430473E0	4,929214716E-1	9,804167537E0
1,410726681E0	-9,571290761E-2	9,801001549E0	4,953143001E-1	9,813976186E0
1,411922670E0	-1,148554832E-1	9,812965393E0	4,977070987E-1	9,826250248E0
1,413118608E0	-1,363908947E-1	9,815358162E0	5,000999570E-1	9,829036488E0
1,414314597E0	-1,483550072E-1	9,812965393E0	5,000999570E-1	9,826820390E0
1,415510587E0	-1,483550072E-1	9,827322960E0	5,072783828E-1	9,841525142E0
1,416706577E0	-1,507478207E-1	9,856036186E0	5,168496966E-1	9,870729852E0
1,417902514E0	-1,603191197E-1	9,877572060E0	5,383850932E-1	9,893532762E0
1,419098504E0	-1,722832322E-1	9,896714211E0	5,575276613E-1	9,913902903E0
1,420294493E0	-1,890329868E-1	9,899106979E0	5,599204898E-1	9,916731488E0
1,421490483E0	-2,057827413E-1	9,894321442E0	5,694918036E-1	9,912833310E0
1,422686472E0	-2,177468538E-1	9,884750366E0	5,742774606E-1	9,903812301E0
1,423882462E0	-2,225325108E-1	9,875179291E0	5,790630579E-1	9,894645055E0
1,425078400E0	-2,177468538E-1	9,875179291E0	5,862415433E-1	9,894961287E0
1,426274389E0	-2,177468538E-1	9,875179291E0	5,790630579E-1	9,894538582E0
1,427470379E0	-2,153540403E-1	9,870393753E0	5,790630579E-1	9,889710017E0
1,428666368E0	-1,890329868E-1	9,860821724E0	5,838487148E-1	9,879899689E0
1,429862358E0	-1,627119333E-1	9,848857880E0	5,886343718E-1	9,867774173E0
1,431058295E0	-1,603191197E-1	9,836894035E0	5,862415433E-1	9,855651456E0
1,432254285E0	-1,698904037E-1	9,822537422E0	5,718846321E-1	9,840637997E0
1,433450275E0	-1,722832322E-1	9,808179855E0	5,647061467E-1	9,825933371E0
1,434646264E0	-1,603191197E-1	9,801001549E0	5,599204898E-1	9,818291325E0
1,435842254E0	-1,555334777E-1	9,801001549E0	5,623133183E-1	9,818351098E0
1,437038191E0	-1,555334777E-1	9,803394318E0	5,647061467E-1	9,820876939E0
1,438234181E0	-1,579262912E-1	9,791430473E0	5,575276613E-1	9,808562001E0
1,439430170E0	-1,651047617E-1	9,779465675E0	5,575276613E-1	9,796736476E0
1,440626160E0	-1,651047617E-1	9,777072906E0	5,694918036E-1	9,795036249E0
1,441822150E0	-1,651047617E-1	9,781859398E0	5,790630579E-1	9,800374834E0
1,443018139E0	-1,507478207E-1	9,779465675E0	5,838487148E-1	9,798038228E0
1,444214077E0	-1,387837082E-1	9,769894600E0	5,934200287E-1	9,788883937E0
1,445410066E0	-1,459621787E-1	9,767501831E0	6,005984545E-1	9,787038136E0
1,446606056E0	-1,531406492E-1	9,767501831E0	6,077769399E-1	9,787590964E0
1,447802045E0	-1,411765367E-1	9,762716293E0	6,125625968E-1	9,782933771E0
1,448998035E0	-1,244267747E-1	9,750752449E0	6,125625968E-1	9,770767026E0
1,450193972E0	-1,316052526E-1	9,748359680E0	6,029912829E-1	9,767877706E0
1,451389962E0	-1,411765367E-1	9,741181374E0	5,934200287E-1	9,760260893E0
1,452585952E0	-1,387837082E-1	9,731609344E0	5,862415433E-1	9,750238997E0
1,453781941E0	-1,268195957E-1	9,724431038E0	5,718846321E-1	9,742058009E0
1,454977931E0	-1,172483116E-1	9,717252731E0	5,575276613E-1	9,733939845E0
1,456173868E0	-1,148554832E-1	9,722038269E0	5,599204898E-1	9,738825948E0
1,457369858E0	-1,172483116E-1	9,734002113E0	5,670989752E-1	9,751212517E0
1,458565847E0	-1,244267747E-1	9,748359680E0	5,647061467E-1	9,765494944E0
1,459761837E0	-1,268195957E-1	9,748359680E0	5,551348329E-1	9,764976925E0
1,460957827E0	-1,316052526E-1	9,743574142E0	5,479564071E-1	9,759857234E0
1,462153816E0	-1,292124242E-1	9,745966911E0	5,455635786E-1	9,762080030E0
1,463349754E0	-1,292124242E-1	9,755537987E0	5,383850932E-1	9,771237167E0
1,464545743E0	-1,435693651E-1	9,769894600E0	5,335994363E-1	9,785508725E0
1,465741733E0	-1,435693651E-1	9,774680138E0	5,312066078E-1	9,790156506E0
1,466937722E0	-1,244267747E-1	9,781859398E0	5,240281820E-1	9,796676010E0
1,468133712E0	-1,268195957E-1	9,796216011E0	5,216353536E-1	9,810914065E0
1,469329650E0	-1,411765367E-1	9,810572624E0	5,216353536E-1	9,825445001E0
1,470525639E0	-1,507478207E-1	9,820143700E0	5,168496966E-1	9,834890991E0
1,471721629E0	-1,531406492E-1	9,822537422E0	5,000999570E-1	9,836452279E0
1,472917618E0	-1,507478207E-1	9,822537422E0	4,953143001E-1	9,836173167E0
1,474113608E0	-1,555334777E-1	9,822537422E0	5,024927258E-1	9,836611765E0
1,475309545E0	-1,555334777E-1	9,829715729E0	5,144568682E-1	9,844397790E0
1,476505535E0	-1,459621787E-1	9,846465111E0	5,192425251E-1	9,861226746E0
1,477701525E0	-1,435693651E-1	9,860821724E0	5,048855543E-1	9,874782360E0
1,478897514E0	-1,363908947E-1	9,868000984E0	4,977070987E-1	9,881485630E0
1,480093504E0	-1,244267747E-1	9,877572060E0	5,096712112E-1	9,891495163E0
1,481289493E0	-1,244267747E-1	9,891928673E0	5,192425251E-1	9,906328669E0
1,482485431E0	-1,292124242E-1	9,903892517E0	5,264210105E-1	9,918714731E0
1,483681420E0	-1,268195957E-1	9,918250084E0	5,335994363E-1	9,933403057E0
1,484877410E0	-1,172483116E-1	9,930213928E0	5,335994363E-1	9,945231228E0
1,486073400E0	-1,220339537E-1	9,930213928E0	5,335994363E-1	9,945288799E0
1,487269389E0	-1,387837082E-1	9,927821159E0	5,312066078E-1	9,942991217E0
1,488465327E0	-1,507478207E-1	9,925428391E0	5,383850932E-1	9,941162515E0
1,489661316E0	-1,507478207E-1	9,932606697E0	5,407779217E-1	9,948459251E0
1,490857306E0	-1,483550072E-1	9,934999466E0	5,335994363E-1	9,950424712E0
1,492053295E0	-1,531406492E-1	9,923035622E0	5,288137794E-1	9,938296233E0
1,493249285E0	-1,627119333E-1	9,923035622E0	5,359922647E-1	9,938832871E0
1,494445222E0	-1,627119333E-1	9,908679008E0	5,551348329E-1	9,925551347E0
1,495641212E0	-1,579262912E-1	9,889535904E0	5,694918036E-1	9,907178308E0
1,496837202E0	-1,579262912E-1	9,882357597E0	5,790630579E-1	9,900567985E0
1,498033191E0	-1,507478207E-1	9,877572060E0	5,934200287E-1	9,896529797E0
1,499229181E0	-1,435693651E-1	9,877572060E0	6,101697683E-1	9,897441543E0
1,500425118E0	-1,459621787E-1	9,868000984E0	6,221339107E-1	9,888670233E0
1,501621108E0	-1,387837082E-1	9,860821724E0	6,293123364E-1	9,881857113E0
1,502817097E0	-1,316052526E-1	9,860821724E0	6,340979934E-1	9,882064829E0
1,504013087E0	-1,339980662E-1	9,846465111E0	6,364908218E-1	9,867925376E0
1,505209077E0	-1,316052526E-1	9,829715729E0	6,340979934E-1	9,851025912E0
1,506405066E0	-1,292124242E-1	9,822537422E0	6,149554253E-1	9,842616900E0
1,507601004E0	-1,268195957E-1	9,817750931E0	6,029912829E-1	9,837068417E0
1,508796993E0	-1,268195957E-1	9,801001549E0	5,982056856E-1	9,820059298E0
1,509992983E0	-1,316052526E-1	9,793823242E0	5,838487148E-1	9,812093200E0
1,511188972E0	-1,363908947E-1	9,789037704E0	5,694918036E-1	9,806537746E0
1,512384910E0	-1,435693651E-1	9,777072906E0	5,527420044E-1	9,793737310E0
1,513580900E0	-1,459621787E-1	9,779465675E0	5,383850932E-1	9,795361778E0
1,514776889E0	-1,483550072E-1	9,793823242E0	5,335994363E-1	9,809470489E0
1,515972879E0	-1,555334777E-1	9,791430473E0	5,335994363E-1	9,807192755E0
1,517168868E0	-1,579262912E-1	9,774680138E0	5,383850932E-1	9,790769685E0
1,518364858E0	-1,674975902E-1	9,781859398E0	5,431707501E-1	9,798360229E0
1,519560795E0	-1,674975902E-1	9,793823242E0	5,551348329E-1	9,810973643E0
1,520756785E0	-1,579262912E-1	9,798608780E0	5,790630579E-1	9,816974522E0
1,521952775E0	-1,603191197E-1	9,810572624E0	5,910272002E-1	9,829666860E0
1,523148764E0	-1,674975902E-1	9,812965393E0	5,838487148E-1	9,831745754E0
1,524344754E0	-1,746760458E-1	9,810572624E0	5,718846321E-1	9,828779119E0
1,525540743E0	-1,770688742E-1	9,812965393E0	5,694918036E-1	9,831071361E0
1,526736681E0	-1,818545163E-1	9,810572624E0	5,647061467E-1	9,828494255E0
1,527932670E0	-1,818545163E-1	9,803394318E0	5,503492355E-1	9,820514014E0
1,529128660E0	-1,818545163E-1	9,796216011E0	5,431707501E-1	9,812948266E0
1,530324650E0	-1,794617027E-1	9,793823242E0	5,335994363E-1	9,809990243E0
1,531520639E0	-1,794617027E-1	9,798608780E0	5,240281820E-1	9,814252191E0
1,532716577E0	-1,818545163E-1	9,801001549E0	5,144568682E-1	9,816178905E0
1,533912566E0	-1,770688742E-1	9,801001549E0	4,953143001E-1	9,815106775E0
1,535108556E0	-1,794617027E-1	9,808179855E0	4,785645306E-1	9,821487799E0
1,536304545E0	-1,842473447E-1	9,805787086E0	4,618147612E-1	9,818384813E0
1,537500535E0	-1,890329868E-1	9,810572624E0	4,618147612E-1	9,823255141E0
1,538696472E0	-1,938186288E-1	9,817750931E0	4,618147612E-1	9,830517376E0
1,539892462E0	-2,009970993E-1	9,812965393E0	4,594219327E-1	9,825770105E0
1,541088452E0	-2,009970993E-1	9,808179855E0	4,546363056E-1	9,820768100E0
1,542284441E0	-1,890329868E-1	9,810572624E0	4,426721931E-1	9,822373815E0
1,543480431E0	-1,866401732E-1	9,810572624E0	4,426721931E-1	9,822328056E0
1,544676368E0	-1,842473447E-1	9,796216011E0	4,450650215E-1	9,808051697E0
1,545872358E0	-1,770688742E-1	9,781859398E0	4,498506486E-1	9,793798664E0
1,547068347E0	-1,722832322E-1	9,781859398E0	4,594219327E-1	9,794157611E0
1,548264337E0	-1,746760458E-1	9,779465675E0	4,666004181E-1	9,792148721E0
1,549460327E0	-1,651047617E-1	9,767501831E0	4,689932466E-1	9,780148581E0
1,550656264E0	-1,531406492E-1	9,748359680E0	4,689932466E-1	9,760836193E0
1,551852254E0	-1,483550072E-1	9,731609344E0	4,809573591E-1	9,744616443E0
1,553048243E0	-1,507478207E-1	9,724431038E0	4,881358147E-1	9,737841675E0
1,554244233E0	-1,507478207E-1	9,724431038E0	4,905286431E-1	9,737961915E0
1,555440222E0	-1,483550072E-1	9,714859962E0	4,929214716E-1	9,728488314E0
1,556636212E0	-1,507478207E-1	9,700503349E0	4,905286431E-1	9,714067556E0
1,557832150E0	-1,483550072E-1	9,690931320E0	4,905286431E-1	9,704472032E0
1,559028139E0	-1,411765367E-1	9,681360245E0	4,977070987E-1	9,695172993E0
1,560224129E0	-1,435693651E-1	9,676574707E0	5,144568682E-1	9,691304148E0
1,561420118E0	-1,483550072E-1	9,688538551E0	5,144568682E-1	9,703321820E0
1,562616108E0	-1,363908947E-1	9,705288887E0	5,120640397E-1	9,719745081E0
1,563812045E0	-1,244267747E-1	9,705288887E0	5,216353536E-1	9,720093510E0
1,565008035E0	-1,292124242E-1	9,698110580E0	5,288137794E-1	9,713376792E0
1,566204025E0	-1,363908947E-1	9,698110580E0	5,288137794E-1	9,713474935E0
1,567400014E0	-1,483550072E-1	9,705288887E0	5,216353536E-1	9,720429262E0
1,568596004E0	-1,603191197E-1	9,712467194E0	5,264210105E-1	9,728044011E0
1,569791993E0	-1,651047617E-1	9,717252731E0	5,383850932E-1	9,733556325E0
1,570987931E0	-1,627119333E-1	9,717252731E0	5,455635786E-1	9,733915730E0
1,572183920E0	-1,579262912E-1	9,719645500E0	5,479564071E-1	9,736359976E0
1,573379910E0	-1,603191197E-1	9,726823807E0	5,575276613E-1	9,744107998E0
1,574575900E0	-1,651047617E-1	9,738788605E0	5,742774606E-1	9,757102934E0
1,575771837E0	-1,698904037E-1	9,753145218E0	5,886343718E-1	9,772368946E0
1,576967827E0	-1,722832322E-1	9,760323524E0	5,862415433E-1	9,779431270E0
1,578163816E0	-1,651047617E-1	9,760323524E0	5,814558864E-1	9,779021722E0
1,579359806E0	-1,555334777E-1	9,753145218E0	5,838487148E-1	9,771842796E0
1,580555795E0	-1,603191197E-1	9,753145218E0	5,862415433E-1	9,772063396E0
1,581751785E0	-1,651047617E-1	9,767501831E0	5,838487148E-1	9,786328777E0
1,582947722E0	-1,555334777E-1	9,784252167E0	5,766702294E-1	9,802465490E0
1,584143712E0	-1,411765367E-1	9,793823242E0	5,838487148E-1	9,812226243E0
1,585339702E0	-1,244267747E-1	9,789037704E0	5,862415433E-1	9,807365617E0
1,586535691E0	-1,028913707E-1	9,805787086E0	5,838487148E-1	9,823692093E0
1,587731681E0	-8,374879509E-2	9,820143700E0	5,814558864E-1	9,837699278E0
1,588927618E0	-8,374879509E-2	9,824930191E0	5,718846321E-1	9,841916437E0
1,590123608E0	-8,614161611E-2	9,822537422E0	5,599204898E-1	9,838860338E0
1,591319597E0	-8,135596663E-2	9,824930191E0	5,407779217E-1	9,840137845E0
1,592515587E0	-7,657032460E-2	9,839286804E0	5,120640397E-1	9,852899949E0
1,593711577E0	-7,657032460E-2	9,839286804E0	4,905286431E-1	9,851804209E0
1,594907566E0	-7,657032460E-2	9,836894035E0	4,761717021E-1	9,848709904E0
1,596103504E0	-6,699903309E-2	9,851250648E0	4,642075896E-1	9,862409285E0
1,597299493E0	-6,221338734E-2	9,846465111E0	4,546363056E-1	9,857151711E0
1,598495483E0	-5,982056633E-2	9,834501266E0	4,522434771E-1	9,845075816E0
1,599691472E0	-4,785645381E-2	9,834501266E0	4,546363056E-1	9,845120597E0
1,600887462E0	-3,349951655E-2	9,829715729E0	4,498506486E-1	9,840060931E0
1,602083400E0	-2,632104978E-2	9,829715729E0	4,450650215E-1	9,839821491E0
1,603279389E0	-2,871387079E-2	9,827322960E0	4,426721931E-1	9,837329908E0
1,604475379E0	-2,632104978E-2	9,822537422E0	4,426721931E-1	9,832542544E0
1,605671368E0	-3,110669367E-2	9,820143700E0	4,498506486E-1	9,830491113E0
1,606867358E0	-3,349951655E-2	9,822537422E0	4,594219327E-1	9,833332708E0
1,608063295E0	-1,435693540E-2	9,808179855E0	4,689932466E-1	9,819396767E0
1,609259285E0	0,000000000E0	9,784252167E0	4,737788737E-1	9,795716252E0
1,610455275E0	-2,392822644E-3	9,767501831E0	4,857429862E-1	9,779572792E0
1,611651264E0	-9,571290575E-3	9,753145218E0	4,977070987E-1	9,765840753E0
1,612847254E0	-2,392822644E-3	9,753145218E0	4,977070987E-1	9,765836356E0
1,614043191E0	7,178467698E-3	9,755537987E0	4,857429862E-1	9,767626078E0
1,615239181E0	2,153540403E-2	9,750752449E0	4,785645306E-1	9,762513053E0
1,616435170E0	2,632104978E-2	9,745966911E0	4,713860750E-1	9,757395588E0
1,617631160E0	1,914258115E-2	9,736394882E0	4,618147612E-1	9,747359879E0
1,618827150E0	2,153540403E-2	9,729216576E0	4,570291340E-1	9,739968921E0
1,620023139E0	2,632104978E-2	9,734002113E0	4,498506486E-1	9,744426897E0
1,621219077E0	2,392822690E-2	9,731609344E0	4,474578202E-1	9,741920319E0
1,622415066E0	9,571290575E-3	9,726823807E0	4,402793646E-1	9,736787915E0
1,623611056E0	-9,571290575E-3	9,717252731E0	4,354937077E-1	9,727011207E0
1,624807045E0	-2,153540403E-2	9,717252731E0	4,331009090E-1	9,726923502E0
1,626003035E0	-2,871387079E-2	9,707681656E0	4,259224236E-1	9,717063215E0
1,627198972E0	-3,828516230E-2	9,705288887E0	4,307080805E-1	9,714916756E0
1,628394962E0	-5,264209956E-2	9,729216576E0	4,378865361E-1	9,739207924E0
1,629590952E0	-6,460621208E-2	9,738788605E0	4,354937077E-1	9,748734904E0
1,630786941E0	-6,460621208E-2	9,736394882E0	4,402793646E-1	9,746558633E0
1,631982931E0	-6,460621208E-2	9,731609344E0	4,474578202E-1	9,742105157E0
1,633178868E0	-8,374879509E-2	9,710074425E0	4,570291340E-1	9,721184847E0
1,634374858E0	-1,052841991E-1	9,702896118E0	4,689932466E-1	9,714794517E0
1,635570847E0	-1,148554832E-1	9,705288887E0	4,833501875E-1	9,717996273E0
1,636766837E0	-1,244267747E-1	9,688538551E0	4,905286431E-1	9,701746216E0
1,637962827E0	-1,363908947E-1	9,678967476E0	4,929214716E-1	9,692470555E0
1,639158764E0	-1,435693651E-1	9,681360245E0	4,977070987E-1	9,695208131E0
1,640354754E0	-1,459621787E-1	9,688538551E0	5,120640397E-1	9,703158960E0
1,641550743E0	-1,531406492E-1	9,690931320E0	5,240281820E-1	9,706297309E0
1,642746733E0	-1,579262912E-1	9,688538551E0	5,264210105E-1	9,704114543E0
1,643942722E0	-1,674975902E-1	9,686145782E0	5,359922647E-1	9,702410178E0
1,645138712E0	-1,794617027E-1	9,695717812E0	5,383850932E-1	9,712312232E0
1,646334650E0	-1,842473447E-1	9,707681656E0	5,288137794E-1	9,723819940E0
1,647530639E0	-1,890329868E-1	9,705288887E0	5,168496966E-1	9,720879562E0
1,648726629E0	-1,818545163E-1	9,698110580E0	5,072783828E-1	9,713071155E0
1,649922618E0	-1,722832322E-1	9,686145782E0	5,000999570E-1	9,700577385E0
1,651118608E0	-1,674975902E-1	9,678967476E0	5,000999570E-1	9,693325890E0
1,652314545E0	-1,555334777E-1	9,695717812E0	5,048855543E-1	9,710100101E0
1,653510535E0	-1,459621787E-1	9,707681656E0	4,977070987E-1	9,721527681E0
1,654706525E0	-1,339980662E-1	9,698110580E0	4,977070987E-1	9,711797808E0
1,655902514E0	-1,316052526E-1	9,693324089E0	5,072783828E-1	9,707480785E0
1,657098504E0	-1,435693651E-1	9,693324089E0	5,144568682E-1	9,708028117E0
1,658294441E0	-1,483550072E-1	9,698110580E0	5,216353536E-1	9,713262144E0
1,659490431E0	-1,531406492E-1	9,712467194E0	5,192425251E-1	9,727542539E0
1,660686420E0	-1,507478207E-1	9,719645500E0	5,288137794E-1	9,735187598E0
1,661882410E0	-1,435693651E-1	9,714859962E0	5,503492355E-1	9,731495288E0
1,663078400E0	-1,363908947E-1	9,722038269E0	5,623133183E-1	9,739241595E0
1,664274337E0	-1,339980662E-1	9,736394882E0	5,623133183E-1	9,753539719E0
1,665470327E0	-1,411765367E-1	9,743574142E0	5,623133183E-1	9,760807556E0
1,666666316E0	-1,579262912E-1	9,741181374E0	5,527420044E-1	9,758128867E0
1,667862306E0	-1,674975902E-1	9,736394882E0	5,455635786E-1	9,753106191E0
1,669058295E0	-1,698904037E-1	9,743574142E0	5,527420044E-1	9,760718393E0
1,670254285E0	-1,651047617E-1	9,762716293E0	5,599204898E-1	9,780153371E0
1,671450222E0	-1,579262912E-1	9,772287369E0	5,503492355E-1	9,789046195E0
1,672646212E0	-1,579262912E-1	9,779465675E0	5,359922647E-1	9,795416138E0
1,673842202E0	-1,651047617E-1	9,789037704E0	5,288137794E-1	9,804701055E0
1,675038191E0	-1,603191197E-1	9,796216011E0	5,264210105E-1	9,811659872E0
1,676234181E0	-1,555334777E-1	9,796216011E0	5,240281820E-1	9,811454751E0
1,677430118E0	-1,555334777E-1	9,801001549E0	5,216353536E-1	9,816105412E0
1,678626108E0	-1,555334777E-1	9,812965393E0	5,216353536E-1	9,828050870E0
1,679822097E0	-1,579262912E-1	9,824930191E0	5,168496966E-1	9,839782903E0
1,681018087E0	-1,651047617E-1	9,824930191E0	5,096712112E-1	9,839526289E0
1,682214077E0	-1,651047617E-1	9,824930191E0	5,072783828E-1	9,839402634E0
1,683410014E0	-1,627119333E-1	9,853643417E0	5,120640397E-1	9,868281175E0
1,684606004E0	-1,435693651E-1	9,872786522E0	5,120640397E-1	9,887099446E0
1,685801993E0	-1,244267747E-1	9,868000984E0	5,240281820E-1	9,882688449E0
1,686997983E0	-1,148554832E-1	9,870393753E0	5,479564071E-1	9,886259194E0
1,688193972E0	-9,810572863E-2	9,875179291E0	5,503492355E-1	9,890989589E0
1,689389910E0	-8,135596663E-2	9,875179291E0	5,503492355E-1	9,890837634E0
1,690585900E0	-8,374879509E-2	9,875179291E0	5,599204898E-1	9,891394787E0
1,691781889E0	-8,135596663E-2	9,879964828E0	5,718846321E-1	9,896836658E0
1,692977879E0	-7,657032460E-2	9,877572060E0	5,790630579E-1	9,894827277E0
1,694173868E0	-7,657032460E-2	9,870393753E0	5,838487148E-1	9,887942919E0
1,695369858E0	-7,178468257E-2	9,865608215E0	5,982056856E-1	9,883988494E0
1,696565795E0	-7,417750359E-2	9,870393753E0	6,149554253E-1	9,889810176E0
1,697761785E0	-7,178468257E-2	9,868000984E0	6,197410822E-1	9,887703246E0
1,698957775E0	-6,460621208E-2	9,865608215E0	6,269195080E-1	9,885718360E0
1,700153660E0	-6,221338734E-2	9,870393753E0	6,388836503E-1	9,891244394E0
1,701349545E0	-6,221338734E-2	9,858428955E0	6,317051649E-1	9,878843221E0
1,702545691E0	-6,699903309E-2	9,846465111E0	6,221339107E-1	9,866327313E0
1,703741577E0	-7,896314561E-2	9,841679573E0	6,245267391E-1	9,861791199E0
1,704937462E0	-7,896314561E-2	9,841679573E0	6,245267391E-1	9,861791199E0
1,706133452E0	-6,699903309E-2	9,834501266E0	6,149554253E-1	9,853936990E0
1,707329441E0	-5,503492057E-2	9,824930191E0	6,005984545E-1	9,843424232E0
1,708525639E0	-4,785645381E-2	9,822537422E0	5,886343718E-1	9,840275508E0
1,709721577E0	-4,307080805E-2	9,822537422E0	5,766702294E-1	9,839544962E0
1,710917566E0	-3,828516230E-2	9,815358162E0	5,599204898E-1	9,831390164E0
1,712113556E0	-3,589234129E-2	9,801001549E0	5,455635786E-1	9,816239567E0
1,713309545E0	-3,349951655E-2	9,796216011E0	5,264210105E-1	9,810407200E0
1,714505535E0	-3,349951655E-2	9,791430473E0	5,000999570E-1	9,804250757E0
1,715701472E0	-2,871387079E-2	9,781859398E0	4,881358147E-1	9,794073429E0
1,716897462E0	-2,632104978E-2	9,784252167E0	4,881358147E-1	9,796456494E0
1,718093452E0	-3,828516230E-2	9,791430473E0	4,905286431E-1	9,803784719E0
1,719289441E0	-4,067798331E-2	9,781859398E0	4,833501875E-1	9,793878465E0
1,720485379E0	-4,067798331E-2	9,769894600E0	4,666004181E-1	9,781115025E0
1,721681368E0	-5,264209956E-2	9,760323524E0	4,666004181E-1	9,771612070E0
1,722877358E0	-6,699903309E-2	9,755537987E0	4,713860750E-1	9,767149795E0
1,724073347E0	-7,657032460E-2	9,755537987E0	4,737788737E-1	9,767335913E0
1,725269337E0	-7,417750359E-2	9,757930756E0	4,857429862E-1	9,770294836E0
1,726465327E0	-6,939185411E-2	9,760323524E0	4,977070987E-1	9,773251398E0
1,727661264E0	-7,417750359E-2	9,755537987E0	5,096712112E-1	9,769124242E0
1,728857254E0	-7,657032460E-2	9,750752449E0	5,144568682E-1	9,764614801E0
1,730053243E0	-6,939185411E-2	9,750752449E0	5,168496966E-1	9,764687510E0
1,731249233E0	-7,178468257E-2	9,743574142E0	5,264210105E-1	9,758048431E0
1,732445222E0	-8,374879509E-2	9,738788605E0	5,335994363E-1	9,753755467E0
1,733641212E0	-1,028913707E-1	9,745966911E0	5,312066078E-1	9,760975265E0
1,734837150E0	-1,124626622E-1	9,755537987E0	5,335994363E-1	9,770767504E0
1,736033139E0	-1,220339537E-1	9,757930756E0	5,383850932E-1	9,773533825E0
1,737229129E0	-1,387837082E-1	9,760323524E0	5,288137794E-1	9,775623777E0
1,738425118E0	-1,411765367E-1	9,777072906E0	5,168496966E-1	9,791742391E0
1,739621108E0	-1,483550072E-1	9,786644936E0	5,120640397E-1	9,801154926E0
1,740817045E0	-1,627119333E-1	9,781859398E0	5,072783828E-1	9,796355435E0
1,742013035E0	-1,746760458E-1	9,784252167E0	5,096712112E-1	9,799074800E0
1,743209025E0	-1,914258152E-1	9,791430473E0	5,216353536E-1	9,807183999E0
1,744405014E0	-2,129612118E-1	9,796216011E0	5,264210105E-1	9,812661193E0
1,745601004E0	-2,273181528E-1	9,808179855E0	5,216353536E-1	9,824671448E0
1,746796941E0	-2,392822653E-1	9,817750931E0	5,168496966E-1	9,834257621E0
1,747992931E0	-2,512463629E-1	9,829715729E0	5,144568682E-1	9,846375065E0
1,749188920E0	-2,512463629E-1	9,832108498E0	5,168496966E-1	9,848889067E0
1,750384910E0	-2,488535494E-1	9,834501266E0	5,120640397E-1	9,850967101E0
1,751580900E0	-2,536391914E-1	9,836894035E0	5,072783828E-1	9,853230357E0
1,752776837E0	-2,608176768E-1	9,848857880E0	5,096712112E-1	9,865484891E0
1,753972827E0	-2,656033039E-1	9,858428955E0	5,144568682E-1	9,875415558E0
1,755168816E0	-2,679961324E-1	9,848857880E0	5,264210105E-1	9,866556772E0
1,756364806E0	-2,656033039E-1	9,839286804E0	5,431707501E-1	9,857846844E0
1,757560795E0	-2,656033039E-1	9,844072342E0	5,431707501E-1	9,862623376E0
1,758756785E0	-2,679961324E-1	9,851250648E0	5,479564071E-1	9,870117400E0
1,759952722E0	-2,679961324E-1	9,851250648E0	5,647061467E-1	9,871061458E0
1,761148712E0	-2,512463629E-1	9,846465111E0	5,814558864E-1	9,866817666E0
1,762344702E0	-2,344966233E-1	9,848857880E0	5,982056856E-1	9,869794336E0
1,763540691E0	-2,177468538E-1	9,856036186E0	6,149554253E-1	9,877602602E0
1,764736681E0	-2,081755698E-1	9,856036186E0	6,245267391E-1	9,877996761E0
1,765932618E0	-1,962114573E-1	9,853643417E0	6,293123364E-1	9,875668157E0
1,767128608E0	-1,651047617E-1	9,858428955E0	6,293123364E-1	9,879874243E0
1,768324597E0	-1,387837082E-1	9,846465111E0	6,245267391E-1	9,867227054E0
1,769520587E0	-1,268195957E-1	9,829715729E0	6,173482537E-1	9,849899156E0
1,770716577E0	-1,172483116E-1	9,834501266E0	6,101697683E-1	9,854109268E0
1,771912514E0	-1,004985496E-1	9,841679573E0	6,101697683E-1	9,861088374E0
1,773108504E0	-8,853443712E-2	9,846465111E0	6,029912829E-1	9,865308511E0
1,774304493E0	-7,657032460E-2	9,841679573E0	5,886343718E-1	9,859564405E0
1,775500483E0	-7,178468257E-2	9,839286804E0	5,838487148E-1	9,856855339E0
1,776696472E0	-6,221338734E-2	9,839286804E0	5,838487148E-1	9,856790281E0
1,777892410E0	-4,067798331E-2	9,834501266E0	5,838487148E-1	9,851900790E0
1,779088400E0	-1,914258115E-2	9,824930191E0	5,694918036E-1	9,841439966E0
1,780284389E0	-2,392822644E-3	9,815358162E0	5,479564071E-1	9,830641779E0
1,781480379E0	2,392822644E-3	9,812965393E0	5,407779217E-1	9,827855122E0
1,782676368E0	9,571290575E-3	9,810572624E0	5,407779217E-1	9,825470349E0
1,783872358E0	2,632104978E-2	9,803394318E0	5,407779217E-1	9,818333550E0
1,785068295E0	4,067798331E-2	9,789037704E0	5,383850932E-1	9,803916176E0
1,786264285E0	4,546362907E-2	9,774680138E0	5,288137794E-1	9,789079770E0
1,787460275E0	4,307080805E-2	9,760323524E0	5,192425251E-1	9,774220337E0
1,788656264E0	5,024927482E-2	9,741181374E0	5,072783828E-1	9,754510285E0
1,789852254E0	5,024927482E-2	9,731609344E0	5,024927258E-1	9,744703400E0
1,791048191E0	3,589234129E-2	9,731609344E0	4,953143001E-1	9,744272418E0
1,792244181E0	4,067798331E-2	9,724431038E0	4,809573591E-1	9,736402502E0
1,793440170E0	5,742774159E-2	9,712467194E0	4,761717021E-1	9,724302362E0
1,794636160E0	6,460621208E-2	9,707681656E0	4,809573591E-1	9,719803346E0
1,795832150E0	6,221338734E-2	9,707681656E0	4,881358147E-1	9,720145586E0
1,797028087E0	5,742774159E-2	9,693324089E0	4,881358147E-1	9,705776961E0
1,798224077E0	5,503492057E-2	9,674181938E0	4,953143001E-1	9,687009924E0
1,799420066E0	5,742774159E-2	9,669396400E0	5,120640397E-1	9,683115938E0
1,800616056E0	6,460621208E-2	9,669396400E0	5,168496966E-1	9,683415426E0
1,801812045E0	6,460621208E-2	9,669396400E0	5,144568682E-1	9,683288005E0
1,803007983E0	6,460621208E-2	9,678967476E0	5,192425251E-1	9,693100544E0
1,804203868E0	6,221338734E-2	9,681360245E0	5,216353536E-1	9,695602619E0
1,805399754E0	5,024927482E-2	9,678967476E0	5,096712112E-1	9,692507474E0
1,806595952E0	3,349951655E-2	9,688538551E0	5,096712112E-1	9,701992899E0
1,807791941E0	1,196411345E-2	9,693324089E0	5,120640397E-1	9,706847306E0
1,808987931E0	-9,571290575E-3	9,693324089E0	4,977070987E-1	9,706097870E0
1,810183868E0	-1,914258115E-2	9,698110580E0	4,881358147E-1	9,710406369E0
1,811379858E0	-2,632104978E-2	9,702896118E0	4,809573591E-1	9,714844613E0
1,812575847E0	-3,828516230E-2	9,707681656E0	4,713860750E-1	9,719195117E0
1,813771837E0	-4,546362907E-2	9,707681656E0	4,642075896E-1	9,718880530E0
1,814967827E0	-5,503492057E-2	9,714859962E0	4,570291340E-1	9,725760051E0
1,816163764E0	-8,135596663E-2	9,736394882E0	4,450650215E-1	9,746901403E0
1,817359754E0	-1,004985496E-1	9,743574142E0	4,450650215E-1	9,754251376E0
1,818555743E0	-1,124626622E-1	9,743574142E0	4,498506486E-1	9,754601505E0
1,819751733E0	-1,292124242E-1	9,753145218E0	4,498506486E-1	9,764369058E0
1,820947722E0	-1,531406492E-1	9,777072906E0	4,474578202E-1	9,788504747E0
1,822143660E0	-1,794617027E-1	9,789037704E0	4,498506486E-1	9,801011748E0
1,823339650E0	-1,986042857E-1	9,786644936E0	4,594219327E-1	9,799435253E0
1,824535639E0	-1,938186288E-1	9,793823242E0	4,737788737E-1	9,807191534E0
1,825731629E0	-1,986042857E-1	9,805787086E0	4,833501875E-1	9,819701190E0
1,826927618E0	-2,153540403E-1	9,805787086E0	5,000999570E-1	9,820892918E0
1,828123608E0	-2,177468538E-1	9,798608780E0	5,168496966E-1	9,814646266E0
1,829319545E0	-2,321037948E-1	9,791430473E0	5,264210105E-1	9,808317999E0
1,830515535E0	-2,608176768E-1	9,789037704E0	5,407779217E-1	9,807432172E0
1,831711525E0	-2,703889608E-1	9,789037704E0	5,455635786E-1	9,807956412E0
1,832907514E0	-2,679961324E-1	9,779465675E0	5,479564071E-1	9,798470648E0
1,834103504E0	-2,703889608E-1	9,767501831E0	5,575276613E-1	9,787136420E0
1,835299441E0	-2,823530734E-1	9,757930756E0	5,647061467E-1	9,778334670E0
1,836495431E0	-2,847459018E-1	9,748359680E0	5,694918036E-1	9,769130852E0
1,837691420E0	-2,799602449E-1	9,738788605E0	5,862415433E-1	9,760433411E0
1,838887410E0	-2,703889608E-1	9,734002113E0	6,005984545E-1	9,756260853E0
1,840083400E0	-2,632105052E-1	9,743574142E0	6,101697683E-1	9,766208271E0
1,841279337E0	-2,775674164E-1	9,743574142E0	6,101697683E-1	9,766605751E0
1,842475327E0	-2,847459018E-1	9,731609344E0	6,101697683E-1	9,754876104E0
1,843671316E0	-2,703889608E-1	9,726823807E0	6,149554253E-1	9,749993935E0
1,844867306E0	-2,512463629E-1	9,719645500E0	6,077769399E-1	9,741869748E0
1,846063295E0	-2,440679073E-1	9,717252731E0	6,029912829E-1	9,739002427E0
1,847259233E0	-2,344966233E-1	9,712467194E0	6,029912829E-1	9,733992302E0
1,848455222E0	-2,129612118E-1	9,710074425E0	6,005984545E-1	9,730961736E0
1,849651212E0	-2,033899277E-1	9,707681656E0	5,958128572E-1	9,728075018E0
1,850847202E0	-1,938186288E-1	9,698110580E0	5,910272002E-1	9,718036203E0
1,852043191E0	-1,866401732E-1	9,690931320E0	5,910272002E-1	9,710731052E0
1,853239181E0	-1,866401732E-1	9,690931320E0	5,958128572E-1	9,711023497E0
1,854435118E0	-1,914258152E-1	9,698110580E0	5,910272002E-1	9,717988775E0
1,855631108E0	-1,842473447E-1	9,705288887E0	5,886343718E-1	9,724868631E0
1,856827097E0	-1,651047617E-1	9,719645500E0	5,910272002E-1	9,738997966E0
1,858023087E0	-1,531406492E-1	9,731609344E0	5,958128572E-1	9,751034071E0
1,859219077E0	-1,363908947E-1	9,745966911E0	6,005984545E-1	9,765407929E0
1,860415014E0	-1,172483116E-1	9,753145218E0	6,029912829E-1	9,772470890E0
1,861611004E0	-1,052841991E-1	9,748359680E0	6,029912829E-1	9,767558533E0
1,862806993E0	-1,004985496E-1	9,748359680E0	5,910272002E-1	9,766776826E0
1,864002983E0	-1,028913707E-1	9,755537987E0	5,862415433E-1	9,773678284E0
1,865198972E0	-1,052841991E-1	9,757930756E0	5,814558864E-1	9,775806276E0
1,866394910E0	-1,076770201E-1	9,748359680E0	5,790630579E-1	9,766136637E0
1,867590900E0	-9,332008660E-2	9,750752449E0	5,814558864E-1	9,768519484E0
1,868786889E0	-7,657032460E-2	9,762716293E0	5,862415433E-1	9,780601801E0
1,869982879E0	-5,742774159E-2	9,769894600E0	5,862415433E-1	9,787635955E0
1,871178868E0	-3,589234129E-2	9,774680138E0	5,742774606E-1	9,791601230E0
1,872374858E0	-1,914258115E-2	9,784252167E0	5,503492355E-1	9,799736791E0
1,873570795E0	-2,153540403E-2	9,801001549E0	5,335994363E-1	9,815539898E0
1,874766785E0	-3,349951655E-2	9,815358162E0	5,168496966E-1	9,829013769E0
1,875962775E0	-4,307080805E-2	9,822537422E0	4,977070987E-1	9,835233035E0
1,877158764E0	-2,153540403E-2	9,829715729E0	4,689932466E-1	9,840921184E0
1,878354754E0	7,178467698E-3	9,836894035E0	4,354937077E-1	9,846531905E0
1,879550691E0	4,785645287E-3	9,832108498E0	4,187439680E-1	9,841022656E0
1,880746681E0	-2,392822644E-3	9,829715729E0	4,019941986E-1	9,837932525E0
1,881942670E0	4,785645287E-3	9,829715729E0	3,852444589E-1	9,837263212E0
1,883138660E0	1,196411345E-2	9,827322960E0	3,708875179E-1	9,834326477E0
1,884334650E0	1,914258115E-2	9,829715729E0	3,661018610E-1	9,836549615E0
1,885530639E0	2,392822690E-2	9,827322960E0	3,637090325E-1	9,834080200E0
1,886726577E0	2,632104978E-2	9,820143700E0	3,517449200E-1	9,826476457E0
1,887922566E0	3,110669367E-2	9,808179855E0	3,517449200E-1	9,814534334E0
1,889118556E0	3,828516230E-2	9,796216011E0	3,613162339E-1	9,802951765E0
1,890314545E0	2,632104978E-2	9,793823242E0	3,756731451E-1	9,801061004E0
1,891510483E0	2,392822644E-3	9,786644936E0	3,900300860E-1	9,794414137E0
1,892706472E0	-4,785645287E-3	9,774680138E0	3,996013701E-1	9,782846005E0
1,893902462E0	-1,196411345E-2	9,767501831E0	4,163511395E-1	9,776378851E0
1,895098452E0	-1,435693540E-2	9,760323524E0	4,354937077E-1	9,770044841E0
1,896294441E0	-1,196411345E-2	9,750752449E0	4,570291340E-1	9,761464649E0
1,897490379E0	-9,571290575E-3	9,741181374E0	4,761717021E-1	9,752817319E0
1,898686368E0	-1,435693540E-2	9,741181374E0	4,905286431E-1	9,753534694E0
1,899882358E0	-2,632104978E-2	9,755537987E0	5,048855543E-1	9,768629568E0
1,901078347E0	-3,110669367E-2	9,757930756E0	5,168496966E-1	9,771658706E0
1,902274337E0	-3,349951655E-2	9,760323524E0	5,335994363E-1	9,774956055E0
1,903470327E0	-3,589234129E-2	9,760323524E0	5,479564071E-1	9,775758783E0
1,904666264E0	-4,307080805E-2	9,755537987E0	5,575276613E-1	9,771551238E0
1,905862254E0	-4,785645381E-2	9,760323524E0	5,623133183E-1	9,776625277E0
1,907058243E0	-5,742774159E-2	9,755537987E0	5,670989752E-1	9,772175838E0
1,908254233E0	-6,221338734E-2	9,760323524E0	5,766702294E-1	9,777542348E0
1,909450222E0	-6,460621208E-2	9,767501831E0	5,862415433E-1	9,785292286E0
1,910646160E0	-6,221338734E-2	9,769894600E0	5,910272002E-1	9,787953011E0
1,911842150E0	-5,742774159E-2	9,777072906E0	5,910272002E-1	9,795088857E0
1,913038139E0	-5,742774159E-2	9,779465675E0	5,982056856E-1	9,797912884E0
1,914234129E0	-6,460621208E-2	9,777072906E0	6,029912829E-1	9,795862753E0
1,915430118E0	-7,896314561E-2	9,781859398E0	6,077769399E-1	9,801040826E0
1,916626056E0	-8,374879509E-2	9,793823242E0	6,125625968E-1	9,813318526E0
1,917822045E0	-8,135596663E-2	9,801001549E0	6,149554253E-1	9,820612014E0
1,919018035E0	-9,571290761E-2	9,817750931E0	6,317051649E-1	9,838518472E0
1,920214025E0	-1,028913707E-1	9,832108498E0	6,508477330E-1	9,854163938E0
1,921410014E0	-1,028913707E-1	9,844072342E0	6,460621357E-1	9,865786496E0
1,922605952E0	-1,124626622E-1	9,848857880E0	6,317051649E-1	9,869736612E0
1,923801941E0	-1,244267747E-1	9,851250648E0	6,293123364E-1	9,872115041E0
1,924997931E0	-1,268195957E-1	9,863214493E0	6,245267391E-1	9,883780501E0
1,926193920E0	-1,244267747E-1	9,882357597E0	6,125625968E-1	9,902106172E0
1,927389910E0	-1,316052526E-1	9,899106979E0	5,910272002E-1	9,917608184E0
1,928585900E0	-1,435693651E-1	9,908679008E0	5,838487148E-1	9,926903403E0
1,929781837E0	-1,507478207E-1	9,911071777E0	5,862415433E-1	9,929539155E0
1,930977827E0	-1,555334777E-1	9,911071777E0	5,718846321E-1	9,928775678E0
1,932173816E0	-1,483550072E-1	9,901499748E0	5,718846321E-1	9,919110772E0
1,933369806E0	-1,483550072E-1	9,899106979E0	5,790630579E-1	9,917138812E0
1,934565795E0	-1,627119333E-1	9,894321442E0	5,814558864E-1	9,912727320E0
1,935761733E0	-1,722832322E-1	9,889535904E0	5,886343718E-1	9,908536336E0
1,936957722E0	-1,770688742E-1	9,875179291E0	5,910272002E-1	9,894434424E0
1,938153712E0	-1,770688742E-1	9,870393753E0	5,982056856E-1	9,890089801E0
1,939349702E0	-1,722832322E-1	9,875179291E0	6,053841114E-1	9,895217909E0
1,940545691E0	-1,698904037E-1	9,875179291E0	6,077769399E-1	9,895323218E0
1,941741629E0	-1,603191197E-1	9,872786522E0	6,125625968E-1	9,893070750E0
1,942937618E0	-1,531406492E-1	9,868000984E0	6,197410822E-1	9,888628545E0
1,944133608E0	-1,555334777E-1	9,863214493E0	6,173482537E-1	9,883739660E0
1,945329597E0	-1,579262912E-1	9,846465111E0	6,053841114E-1	9,866321798E0
1,946525587E0	-1,555334777E-1	9,848857880E0	5,862415433E-1	9,867515966E0
1,947721525E0	-1,531406492E-1	9,853643417E0	5,718846321E-1	9,871412902E0
1,948917514E0	-1,507478207E-1	9,856036186E0	5,647061467E-1	9,873351368E0
1,950113504E0	-1,459621787E-1	9,856036186E0	5,599204898E-1	9,873006898E0
1,951309493E0	-1,435693651E-1	9,846465111E0	5,551348329E-1	9,863146659E0
1,952505483E0	-1,459621787E-1	9,848857880E0	5,503492355E-1	9,865302366E0
1,953701472E0	-1,459621787E-1	9,860821724E0	5,527420044E-1	9,877379903E0
1,954897410E0	-1,363908947E-1	9,860821724E0	5,623133183E-1	9,877783345E0
1,956093400E0	-1,268195957E-1	9,865608215E0	5,647061467E-1	9,882570602E0
1,957289389E0	-1,339980662E-1	9,877572060E0	5,599204898E-1	9,894336574E0
1,958485379E0	-1,339980662E-1	9,879964828E0	5,575276613E-1	9,896590200E0
1,959681368E0	-1,220339537E-1	9,889535904E0	5,623133183E-1	9,906261098E0
1,960877306E0	-1,196411327E-1	9,899106979E0	5,718846321E-1	9,916334253E0
1,962073295E0	-1,268195957E-1	9,901499748E0	5,838487148E-1	9,919509050E0
1,963269285E0	-1,292124242E-1	9,911071777E0	5,814558864E-1	9,928954153E0
1,964465275E0	-1,316052526E-1	9,913464546E0	5,742774606E-1	9,930956341E0
1,965661264E0	-1,244267747E-1	9,913464546E0	5,718846321E-1	9,930725722E0
1,966857202E0	-1,292124242E-1	9,913464546E0	5,670989752E-1	9,930512394E0
1,968053191E0	-1,363908947E-1	9,915857315E0	5,694918036E-1	9,933133931E0
1,969249181E0	-1,387837082E-1	9,920642853E0	5,718846321E-1	9,938081684E0
1,970445170E0	-1,339980662E-1	9,923035622E0	5,623133183E-1	9,939858535E0
1,971641160E0	-1,220339537E-1	9,925428391E0	5,431707501E-1	9,941028895E0
1,972837150E0	-1,196411327E-1	9,927821159E0	5,288137794E-1	9,942614897E0
1,974033087E0	-1,172483116E-1	9,927821159E0	5,288137794E-1	9,942586391E0
1,975229077E0	-1,148554832E-1	9,930213928E0	5,312066078E-1	9,945075208E0
1,976425066E0	-1,100698411E-1	9,923035622E0	5,240281820E-1	9,937472357E0
1,977621056E0	-1,076770201E-1	9,915857315E0	5,120640397E-1	9,929654083E0
1,978817045E0	-9,571290761E-2	9,920642853E0	5,048855543E-1	9,933943074E0
1,980012983E0	-9,332008660E-2	9,908679008E0	5,096712112E-1	9,922217145E0
1,981208972E0	-8,853443712E-2	9,894321442E0	5,192425251E-1	9,908332248E0
1,982404962E0	-8,853443712E-2	9,887143135E0	5,216353536E-1	9,901289874E0
1,983600952E0	-8,374879509E-2	9,872786522E0	5,240281820E-1	9,887038642E0
1,984796941E0	-7,657032460E-2	9,858428955E0	5,192425251E-1	9,872390657E0
1,985992879E0	-7,657032460E-2	9,853643417E0	5,240281820E-1	9,867864873E0
1,987188868E0	-6,699903309E-2	9,856036186E0	5,383850932E-1	9,870957232E0
1,988384858E0	-6,221338734E-2	9,853643417E0	5,407779217E-1	9,868667583E0
1,989580847E0	-6,221338734E-2	9,839286804E0	5,431707501E-1	9,854464460E0
