"Time (s)"	"Acceleration x (m/s^2)"	"Acceleration y (m/s^2)"	"Acceleration z (m/s^2)"	"Absolute acceleration (m/s^2)"
3,715590000E-2	5,264209956E-2	9,662218094E0	2,775674164E-1	9,666347467E0
3,835189000E-2	6,460621208E-2	9,674181938E0	2,560320199E-1	9,677785001E0
3,954787900E-2	7,178468257E-2	9,686145782E0	2,392822653E-1	9,689366809E0
4,074386900E-2	7,657032460E-2	9,702896118E0	2,129612118E-1	9,705534945E0
4,193985800E-2	7,178468257E-2	9,717252731E0	1,770688742E-1	9,719130983E0
4,313584800E-2	6,699903309E-2	9,722038269E0	1,459621787E-1	9,723364743E0
4,433183800E-2	8,374879509E-2	9,729216576E0	1,148554832E-1	9,730254921E0
4,555173300E-2	8,614161611E-2	9,748359680E0	7,896314561E-2	9,749060058E0
4,672376500E-2	7,657032460E-2	9,767501831E0	4,785645381E-2	9,767919189E0
4,791980600E-2	7,896314561E-2	9,781859398E0	1,914258115E-2	9,782196834E0
4,911584800E-2	7,417750359E-2	9,793823242E0	0,000000000E0	9,794104145E0
5,031183800E-2	5,264209956E-2	9,801001549E0	-1,914258115E-2	9,801161614E0
5,150782700E-2	3,589234129E-2	9,815358162E0	-4,067798331E-2	9,815508077E0
5,270381700E-2	1,435693540E-2	9,834501266E0	-4,307080805E-2	9,834606061E0
5,389980600E-2	-1,914258115E-2	9,856036186E0	-2,871387079E-2	9,856096602E0
5,509579600E-2	-5,264209956E-2	9,870393753E0	-1,435693540E-2	9,870544572E0
5,629178500E-2	-5,264209956E-2	9,877572060E0	-9,571290575E-3	9,877716973E0
5,748777500E-2	-1,435693540E-2	9,887143135E0	-1,435693540E-2	9,887163982E0
5,868376500E-2	1,674975827E-2	9,889535904E0	-2,153540403E-2	9,889573536E0
5,987975400E-2	2,153540403E-2	9,891928673E0	-2,632104978E-2	9,891987133E0
6,107579600E-2	7,178467698E-3	9,901499748E0	-3,110669367E-2	9,901551213E0
6,227178500E-2	-4,785645287E-3	9,901499748E0	-4,067798331E-2	9,901584462E0
6,346777500E-2	0,000000000E0	9,901499748E0	-4,785645381E-2	9,901615399E0
6,466376500E-2	0,000000000E0	9,911071777E0	-5,503492057E-2	9,911224577E0
6,585975400E-2	-1,914258115E-2	9,927821159E0	-6,939185411E-2	9,928082123E0
6,705574400E-2	-3,110669367E-2	9,942177773E0	-8,614161611E-2	9,942599603E0
6,825173300E-2	-2,871387079E-2	9,954142570E0	-8,135596663E-2	9,954516442E0
6,944772300E-2	-2,632104978E-2	9,968499184E0	-7,417750359E-2	9,968809913E0
7,064371300E-2	-3,589234129E-2	9,968499184E0	-7,178468257E-2	9,968822261E0
7,183970200E-2	-2,871387079E-2	9,958928108E0	-6,221338734E-2	9,959163823E0
7,303569200E-2	-1,914258115E-2	9,951749802E0	-5,982056633E-2	9,951948003E0
7,423168100E-2	-2,153540403E-2	9,951749802E0	-5,503492057E-2	9,951925278E0
7,542772300E-2	-3,589234129E-2	9,942177773E0	-5,503492057E-2	9,942394881E0
7,662371300E-2	-4,785645381E-2	9,932606697E0	-6,699903309E-2	9,932947947E0
7,781970200E-2	-5,503492057E-2	9,932606697E0	-7,417750359E-2	9,933036139E0
7,901569200E-2	-6,939185411E-2	9,923035622E0	-8,614161611E-2	9,923652128E0
8,021168100E-2	-7,657032460E-2	9,903892517E0	-1,028913707E-1	9,904722946E0
8,140767100E-2	-6,699903309E-2	9,884750366E0	-1,172483116E-1	9,885672756E0
8,260366000E-2	-5,503492057E-2	9,872786522E0	-1,268195957E-1	9,873754390E0
8,379965000E-2	-5,742774159E-2	9,863214493E0	-1,339980662E-1	9,864291843E0
8,499564000E-2	-6,699903309E-2	9,844072342E0	-1,339980662E-1	9,845212269E0
8,619162900E-2	-7,178468257E-2	9,824930191E0	-1,387837082E-1	9,826172562E0
8,738761900E-2	-7,657032460E-2	9,820143700E0	-1,507478207E-1	9,821599167E0
8,858360800E-2	-7,896314561E-2	9,824930191E0	-1,603191197E-1	9,826555381E0
8,977959800E-2	-8,135596663E-2	9,829715729E0	-1,698904037E-1	9,831520373E0
9,097558800E-2	-8,135596663E-2	9,836894035E0	-1,722832322E-1	9,838738972E0
9,217162900E-2	-7,896314561E-2	9,851250648E0	-1,770688742E-1	9,853158271E0
9,336761900E-2	-8,135596663E-2	9,860821724E0	-1,746760458E-1	9,862704273E0
9,456360800E-2	-8,135596663E-2	9,868000984E0	-1,555334777E-1	9,869561940E0
9,575959800E-2	-8,374879509E-2	9,879964828E0	-1,435693651E-1	9,881362813E0
9,695558800E-2	-9,332008660E-2	9,889535904E0	-1,339980662E-1	9,890883910E0
9,815157700E-2	-9,092725813E-2	9,891928673E0	-1,244267747E-1	9,893129063E0
9,934756700E-2	-8,614161611E-2	9,894321442E0	-1,148554832E-1	9,895363002E0
1,005435560E-1	-8,135596663E-2	9,894321442E0	-1,076770201E-1	9,895241782E0
1,017395460E-1	-6,939185411E-2	9,894321442E0	-1,004985496E-1	9,895075138E0
1,029355350E-1	-5,503492057E-2	9,891928673E0	-1,004985496E-1	9,892592262E0
1,041315250E-1	-4,067798331E-2	9,889535904E0	-1,004985496E-1	9,890130184E0
1,053275150E-1	-2,632104978E-2	9,882357597E0	-1,052841991E-1	9,882953468E0
1,065235560E-1	-1,674975827E-2	9,877572060E0	-1,124626622E-1	9,878226470E0
1,077195460E-1	-9,571290575E-3	9,865608215E0	-1,292124242E-1	9,866458986E0
1,089155350E-1	4,785645287E-3	9,846465111E0	-1,435693651E-1	9,847512896E0
1,101115250E-1	1,435693540E-2	9,834501266E0	-1,531406492E-1	9,835704008E0
1,113075150E-1	2,632104978E-2	9,827322960E0	-1,674975902E-1	9,828785520E0
1,125035040E-1	3,110669367E-2	9,820143700E0	-1,746760458E-1	9,821746364E0
1,136994940E-1	4,067798331E-2	9,803394318E0	-1,698904037E-1	9,804950668E0
1,148954830E-1	5,503492057E-2	9,798608780E0	-1,674975902E-1	9,800194810E0
1,160914730E-1	6,699903309E-2	9,789037704E0	-1,603191197E-1	9,790579670E0
1,172880880E-1	7,657032460E-2	9,777072906E0	-1,507478207E-1	9,778534785E0
1,184835040E-1	8,135596663E-2	9,762716293E0	-1,411765367E-1	9,764075944E0
1,196794940E-1	7,417750359E-2	9,755537987E0	-1,268195957E-1	9,756644245E0
1,208754830E-1	6,699903309E-2	9,757930756E0	-1,100698411E-1	9,758781526E0
1,220714730E-1	6,460621208E-2	9,760323524E0	-9,332008660E-2	9,760983450E0
1,232674630E-1	5,503492057E-2	9,765109062E0	-7,896314561E-2	9,765583394E0
1,244634520E-1	5,742774159E-2	9,772287369E0	-6,221338734E-2	9,772654136E0
1,256594420E-1	7,178468257E-2	9,760323524E0	-3,349951655E-2	9,760644987E0
1,268554310E-1	7,178468257E-2	9,738788605E0	-2,392822690E-2	9,739082559E0
1,280514210E-1	6,939185411E-2	9,729216576E0	-2,871387079E-2	9,729506405E0
1,292474100E-1	6,699903309E-2	9,726823807E0	-3,110669367E-2	9,727104290E0
1,304434000E-1	5,982056633E-2	9,726823807E0	-5,503492057E-2	9,727163446E0
1,316393900E-1	5,503492057E-2	9,722038269E0	-8,614161611E-2	9,722575653E0
1,328354310E-1	5,742774159E-2	9,717252731E0	-1,004985496E-1	9,717942094E0
1,340314210E-1	5,264209956E-2	9,717252731E0	-1,100698411E-1	9,718018687E0
1,352274100E-1	4,067798331E-2	9,719645500E0	-1,196411327E-1	9,720466931E0
1,364234000E-1	3,828516230E-2	9,722038269E0	-1,339980662E-1	9,723037043E0
1,376193900E-1	2,871387079E-2	9,717252731E0	-1,459621787E-1	9,718391332E0
1,388153790E-1	9,571290575E-3	9,702896118E0	-1,531406492E-1	9,704109271E0
1,400113690E-1	-2,392822644E-3	9,707681656E0	-1,507478207E-1	9,708852340E0
1,412073580E-1	-2,392822690E-2	9,722038269E0	-1,387837082E-1	9,723058242E0
1,424033480E-1	-4,785645381E-2	9,731609344E0	-1,363908947E-1	9,732682731E0
1,435993380E-1	-5,982056633E-2	9,738788605E0	-1,268195957E-1	9,739798006E0
1,447953270E-1	-6,939185411E-2	9,745966911E0	-1,004985496E-1	9,746732079E0
1,459913170E-1	-8,853443712E-2	9,750752449E0	-8,135596663E-2	9,751493755E0
1,471873580E-1	-1,004985496E-1	9,743574142E0	-6,939185411E-2	9,744339498E0
1,483833480E-1	-1,148554832E-1	9,741181374E0	-6,460621208E-2	9,742072690E0
1,495793380E-1	-1,316052526E-1	9,745966911E0	-4,785645381E-2	9,746972926E0
1,507753270E-1	-1,435693651E-1	9,738788605E0	-3,349951655E-2	9,739904408E0
1,519713170E-1	-1,411765367E-1	9,743574142E0	-3,110669367E-2	9,744646505E0
1,531673060E-1	-1,316052526E-1	9,755537987E0	-2,153540403E-2	9,756449412E0
1,543632960E-1	-1,292124242E-1	9,757930756E0	-1,435693540E-2	9,758796781E0
1,555592850E-1	-1,268195957E-1	9,745966911E0	-7,178467698E-3	9,746794641E0
1,567552750E-1	-1,268195957E-1	9,738788605E0	-2,392822644E-3	9,739614593E0
1,579512650E-1	-1,316052526E-1	9,753145218E0	-2,392822644E-3	9,754033387E0
1,591472540E-1	-1,268195957E-1	9,757930756E0	0,000000000E0	9,758754830E0
1,603432440E-1	-1,172483116E-1	9,755537987E0	7,178467698E-3	9,756245185E0
1,615392330E-1	-1,172483116E-1	9,760323524E0	9,571290575E-3	9,761032429E0
1,627352750E-1	-1,196411327E-1	9,767501831E0	2,392822644E-3	9,768234833E0
1,639312650E-1	-1,387837082E-1	9,769894600E0	-1,435693540E-2	9,770890826E0
1,651272540E-1	-1,531406492E-1	9,767501831E0	-2,153540403E-2	9,768726010E0
1,663232440E-1	-1,507478207E-1	9,765109062E0	-1,674975827E-2	9,766286933E0
1,675192330E-1	-1,411765367E-1	9,755537987E0	-1,435693540E-2	9,756570009E0
1,687152230E-1	-1,268195957E-1	9,750752449E0	-7,178467698E-3	9,751579773E0
1,699112130E-1	-1,052841991E-1	9,743574142E0	7,178467698E-3	9,744145594E0
1,711072020E-1	-8,135596663E-2	9,729216576E0	2,392822690E-2	9,729586144E0
1,723031920E-1	-5,982056633E-2	9,717252731E0	2,871387079E-2	9,717479284E0
1,734991810E-1	-5,503492057E-2	9,714859962E0	2,871387079E-2	9,715058282E0
1,746951710E-1	-5,742774159E-2	9,717252731E0	2,632104978E-2	9,717458072E0
1,758911600E-1	-5,503492057E-2	9,719645500E0	2,153540403E-2	9,719825166E0
1,770871500E-1	-5,024927482E-2	9,719645500E0	9,571290575E-3	9,719780103E0
1,782831920E-1	-4,785645381E-2	9,712467194E0	-2,392822644E-3	9,712585390E0
1,794791810E-1	-5,742774159E-2	9,693324089E0	-7,178467698E-3	9,693496860E0
1,806751710E-1	-5,503492057E-2	9,688538551E0	2,392822644E-3	9,688695156E0
1,818711600E-1	-3,828516230E-2	9,710074425E0	1,196411345E-2	9,710157271E0
1,830671500E-1	-2,392822690E-2	9,729216576E0	2,153540403E-2	9,729269834E0
1,842631400E-1	-1,196411345E-2	9,738788605E0	3,110669367E-2	9,738845633E0
1,854591290E-1	-1,435693540E-2	9,743574142E0	3,349951655E-2	9,743642307E0
1,866551190E-1	-2,632104978E-2	9,745966911E0	3,589234129E-2	9,746068546E0
1,878511080E-1	-2,632104978E-2	9,760323524E0	3,349951655E-2	9,760416503E0
1,890470980E-1	-3,589234129E-2	9,772287369E0	2,871387079E-2	9,772395467E0
1,902430880E-1	-5,982056633E-2	9,772287369E0	2,871387079E-2	9,772512645E0
1,914390770E-1	-8,135596663E-2	9,772287369E0	4,067798331E-2	9,772710674E0
1,926351190E-1	-1,028913707E-1	9,789037704E0	6,460621208E-2	9,789791610E0
1,938311080E-1	-1,196411327E-1	9,815358162E0	8,853443712E-2	9,816486550E0
1,950270980E-1	-1,411765367E-1	9,836894035E0	1,052841991E-1	9,838470401E0
1,962230880E-1	-1,698904037E-1	9,853643417E0	1,220339537E-1	9,855863414E0
1,974190770E-1	-1,890329868E-1	9,863214493E0	1,411765367E-1	9,866035902E0
1,986150670E-1	-1,914258152E-1	9,870393753E0	1,603191197E-1	9,873551484E0
1,998110560E-1	-2,009970993E-1	9,882357597E0	1,746760458E-1	9,885944732E0
2,010070460E-1	-2,033899277E-1	9,889535904E0	1,770688742E-1	9,893211877E0
2,022030350E-1	-2,081755698E-1	9,891928673E0	1,698904037E-1	9,895577431E0
2,033990250E-1	-2,201396823E-1	9,894321442E0	1,627119333E-1	9,898107569E0
2,045950150E-1	-2,105683982E-1	9,894321442E0	1,555334777E-1	9,897783919E0
2,057910560E-1	-1,938186288E-1	9,891928673E0	1,531406492E-1	9,895012410E0
2,069870460E-1	-1,842473447E-1	9,891928673E0	1,698904037E-1	9,895102966E0
2,081830350E-1	-1,842473447E-1	9,899106979E0	1,890329868E-1	9,902625891E0
2,093790250E-1	-1,842473447E-1	9,906285286E0	1,938186288E-1	9,909894092E0
2,105750150E-1	-1,794617027E-1	9,901499748E0	2,033899277E-1	9,905214345E0
2,117710040E-1	-1,746760458E-1	9,901499748E0	2,153540403E-1	9,905381686E0
2,129669940E-1	-1,794617027E-1	9,899106979E0	2,129612118E-1	9,903023678E0
2,141635560E-1	-1,842473447E-1	9,894321442E0	2,033899277E-1	9,898126658E0
2,153589730E-1	-1,746760458E-1	9,889535904E0	2,009970993E-1	9,893120435E0
2,165549630E-1	-1,555334777E-1	9,872786522E0	2,081755698E-1	9,876205822E0
2,177509520E-1	-1,363908947E-1	9,856036186E0	2,057827413E-1	9,859127665E0
2,189469420E-1	-1,172483116E-1	9,844072342E0	1,914258152E-1	9,846631469E0
2,201429310E-1	-9,810572863E-2	9,841679573E0	1,794617027E-1	9,843804552E0
2,213389210E-1	-8,614161611E-2	9,832108498E0	1,746760458E-1	9,834037299E0
2,225349630E-1	-8,135596663E-2	9,815358162E0	1,674975902E-1	9,817124329E0
2,237309520E-1	-7,896314561E-2	9,801001549E0	1,579262912E-1	9,802591864E0
2,249269420E-1	-6,699903309E-2	9,784252167E0	1,579262912E-1	9,785755977E0
2,261229310E-1	-5,264209956E-2	9,774680138E0	1,651047617E-1	9,776216168E0
2,273189210E-1	-5,024927482E-2	9,767501831E0	1,770688742E-1	9,769235917E0
2,285149100E-1	-5,024927482E-2	9,777072906E0	1,890329868E-1	9,779029250E0
2,297109000E-1	-4,307080805E-2	9,779465675E0	1,962114573E-1	9,781528660E0
2,309068900E-1	-4,546362907E-2	9,769894600E0	2,057827413E-1	9,772167312E0
2,321028790E-1	-4,785645381E-2	9,762716293E0	2,105683982E-1	9,765104132E0
2,332988690E-1	-3,828516230E-2	9,757930756E0	2,129612118E-1	9,760329444E0
2,344949100E-1	-3,349951655E-2	9,762716293E0	2,297109663E-1	9,765475860E0
2,356909000E-1	-3,110669367E-2	9,772287369E0	2,512463629E-1	9,775566110E0
2,368868900E-1	-4,307080805E-2	9,765109062E0	2,727817893E-1	9,769013256E0
2,380828790E-1	-5,024927482E-2	9,765109062E0	2,943171859E-1	9,769672594E0
2,392788690E-1	-6,460621208E-2	9,767501831E0	3,086741269E-1	9,772591555E0
2,404748580E-1	-7,657032460E-2	9,779465675E0	3,230310678E-1	9,785098925E0
2,416708480E-1	-8,135596663E-2	9,803394318E0	3,302095234E-1	9,809291374E0
2,428668380E-1	-9,332008660E-2	9,824930191E0	3,397808075E-1	9,831246762E0
2,440628270E-1	-1,028913707E-1	9,839286804E0	3,421736360E-1	9,845772405E0
2,452588170E-1	-1,028913707E-1	9,848857880E0	3,469592929E-1	9,855504498E0
2,464548060E-1	-9,332008660E-2	9,856036186E0	3,613162339E-1	9,863098264E0
2,476507960E-1	-8,853443712E-2	9,860821724E0	3,661018610E-1	9,868012667E0
2,488468380E-1	-8,135596663E-2	9,863214493E0	3,637090325E-1	9,870253451E0
2,500428270E-1	-7,657032460E-2	9,870393753E0	3,637090325E-1	9,877389337E0
2,512388170E-1	-6,939185411E-2	9,865608215E0	3,661018610E-1	9,872642567E0
2,524348060E-1	-5,742774159E-2	9,851250648E0	3,661018610E-1	9,858218290E0
2,536307960E-1	-5,982056633E-2	9,851250648E0	3,541377485E-1	9,857795463E0
2,548267850E-1	-5,742774159E-2	9,841679573E0	3,397808075E-1	9,847710686E0
2,560227750E-1	-6,460621208E-2	9,824930191E0	3,230310678E-1	9,830451480E0
2,572187650E-1	-7,657032460E-2	9,817750931E0	2,967100143E-1	9,822531913E0
2,584147540E-1	-8,135596663E-2	9,812965393E0	2,871387303E-1	9,817502597E0
2,596109520E-1	-1,052841991E-1	9,801001549E0	2,751746178E-1	9,805428965E0
2,608067330E-1	-1,268195957E-1	9,791430473E0	2,632105052E-1	9,795788569E0
2,620027230E-1	-1,507478207E-1	9,791430473E0	2,632105052E-1	9,796127571E0
2,631987650E-1	-1,818545163E-1	9,798608780E0	2,584248483E-1	9,803702795E0
2,643947540E-1	-2,129612118E-1	9,805787086E0	2,584248483E-1	9,811503262E0
2,655907440E-1	-2,368894368E-1	9,820143700E0	2,608176768E-1	9,826462474E0
2,667867330E-1	-2,608176768E-1	9,844072342E0	2,679961324E-1	9,851172928E0
2,679827230E-1	-2,823530734E-1	9,863214493E0	2,679961324E-1	9,870893846E0
2,691787130E-1	-3,038884699E-1	9,877572060E0	2,584248483E-1	9,885623976E0
2,703747020E-1	-3,254238665E-1	9,906285286E0	2,584248483E-1	9,914997340E0
2,715706920E-1	-3,517449200E-1	9,944570541E0	2,632105052E-1	9,954269813E0
2,727666810E-1	-3,852444589E-1	9,980463028E0	2,703889608E-1	9,991554721E0
2,739626710E-1	-4,139583111E-1	1,000439167E1	2,799602449E-1	1,001686537E1
2,751586600E-1	-4,307080805E-1	1,002114105E1	2,799602449E-1	1,003429894E1
2,763546500E-1	-4,402793646E-1	1,004028416E1	2,823530734E-1	1,005389850E1
2,775506400E-1	-4,426721931E-1	1,004746246E1	2,847459018E-1	1,006123953E1
2,787466810E-1	-4,450650215E-1	1,004985523E1	2,751746178E-1	1,006346830E1
2,799426710E-1	-4,450650215E-1	1,004985523E1	2,656033039E-1	1,006321113E1
2,811386600E-1	-4,498506486E-1	1,005703354E1	2,656033039E-1	1,007059255E1
2,823346500E-1	-4,594219327E-1	1,005942631E1	2,632105052E-1	1,007335128E1
2,835306400E-1	-4,618147612E-1	1,004506969E1	2,416750938E-1	1,005858364E1
2,847266290E-1	-4,498506486E-1	1,001156998E1	2,153540403E-1	1,002398505E1
2,859226190E-1	-4,354937077E-1	9,978070259E0	1,842473447E-1	9,989268639E0
2,871186080E-1	-4,187439680E-1	9,949356079E0	1,674975902E-1	9,959572699E0
2,883145980E-1	-4,043870270E-1	9,920642853E0	1,603191197E-1	9,930175512E0
2,895105880E-1	-3,900300860E-1	9,896714211E0	1,507478207E-1	9,905543929E0
2,907065770E-1	-3,852444589E-1	9,872786522E0	1,435693651E-1	9,881342984E0
2,919025670E-1	-3,780659735E-1	9,834501266E0	1,339980662E-1	9,842677711E0
2,930986080E-1	-3,541377485E-1	9,803394318E0	1,316052526E-1	9,810671416E0
2,942945980E-1	-3,326023519E-1	9,793823242E0	1,339980662E-1	9,800385375E0
2,954905880E-1	-3,182454109E-1	9,779465675E0	1,411765367E-1	9,785660931E0
2,966865770E-1	-3,014956415E-1	9,757930756E0	1,555334777E-1	9,763826244E0
2,978825670E-1	-2,679961324E-1	9,736394882E0	1,603191197E-1	9,741401822E0
2,990785560E-1	-2,344966233E-1	9,710074425E0	1,555334777E-1	9,714150743E0
3,002745460E-1	-2,081755698E-1	9,690931320E0	1,507478207E-1	9,694339164E0
3,014705350E-1	-1,866401732E-1	9,676574707E0	1,459621787E-1	9,679475067E0
3,026665250E-1	-1,674975902E-1	9,647860527E0	1,435693651E-1	9,650382394E0
3,038625150E-1	-1,507478207E-1	9,621540070E0	1,411765367E-1	9,623756493E0
3,050585040E-1	-1,387837082E-1	9,611968994E0	1,435693651E-1	9,614042907E0
3,062545460E-1	-1,292124242E-1	9,595218658E0	1,411765367E-1	9,597127058E0
3,074504830E-1	-1,387837082E-1	9,588040352E0	1,435693651E-1	9,590119440E0
3,086465250E-1	-1,507478207E-1	9,595218658E0	1,579262912E-1	9,597702158E0
3,098425150E-1	-1,363908947E-1	9,595218658E0	1,698904037E-1	9,597691719E0
3,110385040E-1	-1,196411327E-1	9,580862045E0	1,866401732E-1	9,583426636E0
3,122344940E-1	-1,124626622E-1	9,583254814E0	2,033899277E-1	9,586072613E0
3,134304830E-1	-1,052841991E-1	9,607182503E0	2,225325108E-1	9,610336161E0
3,146264730E-1	-1,028913707E-1	9,626325607E0	2,344966233E-1	9,629731045E0
3,158224630E-1	-9,810572863E-2	9,635896683E0	2,392822653E-1	9,639366453E0
3,170184520E-1	-9,571290761E-2	9,645467758E0	2,512463629E-1	9,649214163E0
3,182144420E-1	-9,810572863E-2	9,664610863E0	2,584248483E-1	9,668563040E0
3,194104310E-1	-9,092725813E-2	9,686145782E0	2,584248483E-1	9,690019158E0
3,206064210E-1	-7,657032460E-2	9,702896118E0	2,560320199E-1	9,706575528E0
3,218024100E-1	-6,939185411E-2	9,707681656E0	2,584248483E-1	9,711368686E0
3,229984520E-1	-5,982056633E-2	9,707681656E0	2,584248483E-1	9,711305012E0
3,241944420E-1	-4,067798331E-2	9,707681656E0	2,512463629E-1	9,711017586E0
3,253904310E-1	-2,392822690E-2	9,707681656E0	2,512463629E-1	9,710961869E0
3,265864210E-1	-1,914258115E-2	9,705288887E0	2,464607358E-1	9,708436626E0
3,277824100E-1	-1,674975827E-2	9,695717812E0	2,297109663E-1	9,698453050E0
3,289784000E-1	-2,392822690E-2	9,681360245E0	2,081755698E-1	9,683627720E0
3,301743900E-1	-2,871387079E-2	9,664610863E0	1,962114573E-1	9,666645051E0
3,313703790E-1	-2,871387079E-2	9,659825325E0	1,818545163E-1	9,661579626E0
3,325663690E-1	-1,674975827E-2	9,659825325E0	1,746760458E-1	9,661419025E0
3,337623580E-1	-1,196411345E-2	9,667003632E0	1,651047617E-1	9,668420860E0
3,349583480E-1	-1,435693540E-2	9,667003632E0	1,603191197E-1	9,668343579E0
3,361543380E-1	-1,196411345E-2	9,662218094E0	1,555334777E-1	9,663477236E0
3,373503270E-1	-2,632104978E-2	9,659825325E0	1,459621787E-1	9,660963879E0
3,385463690E-1	-4,067798331E-2	9,667003632E0	1,435693651E-1	9,668155257E0
3,397423580E-1	-5,742774159E-2	9,681360245E0	1,459621787E-1	9,682630794E0
3,409383480E-1	-6,939185411E-2	9,693324089E0	1,531406492E-1	9,694782060E0
3,421343380E-1	-7,178468257E-2	9,705288887E0	1,603191197E-1	9,706878367E0
3,433303270E-1	-7,896314561E-2	9,705288887E0	1,627119333E-1	9,706973923E0
3,445263170E-1	-9,092725813E-2	9,702896118E0	1,627119333E-1	9,704686292E0
3,457223060E-1	-1,004985496E-1	9,705288887E0	1,651047617E-1	9,707213396E0
3,469182960E-1	-1,196411327E-1	9,707681656E0	1,603191197E-1	9,709742497E0
3,481142850E-1	-1,363908947E-1	9,695717812E0	1,507478207E-1	9,697848796E0
3,493102750E-1	-1,339980662E-1	9,669396400E0	1,531406492E-1	9,671537328E0
3,505062650E-1	-1,268195957E-1	9,647860527E0	1,579262912E-1	9,649986356E0
3,517023060E-1	-1,220339537E-1	9,628718376E0	1,483550072E-1	9,630634406E0
3,528982960E-1	-1,148554832E-1	9,611968994E0	1,411765367E-1	9,613691827E0
3,540942850E-1	-1,124626622E-1	9,604789734E0	1,339980662E-1	9,606382730E0
3,552902750E-1	-1,196411327E-1	9,597611427E0	1,124626622E-1	9,599015937E0
3,564862650E-1	-1,268195957E-1	9,580862045E0	1,004985496E-1	9,582228379E0
3,576822540E-1	-1,172483116E-1	9,549755096E0	9,810572863E-2	9,550978709E0
3,588782440E-1	-1,052841991E-1	9,523433685E0	1,004985496E-1	9,524545862E0
3,600742330E-1	-1,028913707E-1	9,513862610E0	9,332008660E-2	9,514876617E0
3,612702230E-1	-9,810572863E-2	9,511469841E0	8,374879509E-2	9,512344460E0
3,624662130E-1	-8,614161611E-2	9,501898766E0	7,896314561E-2	9,502617308E0
3,636622020E-1	-6,939185411E-2	9,477970123E0	6,939185411E-2	9,478478154E0
3,648581920E-1	-5,503492057E-2	9,456435204E0	6,699903309E-2	9,456832687E0
3,660541810E-1	-4,307080805E-2	9,454042435E0	6,221338734E-2	9,454345242E0
3,672501710E-1	-4,307080805E-2	9,439684868E0	4,785645381E-2	9,439904435E0
3,684462130E-1	-5,024927482E-2	9,418149948E0	3,349951655E-2	9,418343573E0
3,696422020E-1	-5,264209956E-2	9,408578873E0	1,435693540E-2	9,408737095E0
3,708381920E-1	-5,503492057E-2	9,413364410E0	-4,785645287E-3	9,413526505E0
3,720341810E-1	-5,742774159E-2	9,425328255E0	-2,392822690E-2	9,425533577E0
3,732301710E-1	-5,503492057E-2	9,437292099E0	-3,828516230E-2	9,437530226E0
3,744261600E-1	-5,024927482E-2	9,446864128E0	-5,264209956E-2	9,447144438E0
3,756221500E-1	-5,024927482E-2	9,454042435E0	-7,657032460E-2	9,454486044E0
3,768181400E-1	-5,264209956E-2	9,461220741E0	-1,052841991E-1	9,461952963E0
3,780141290E-1	-5,982056633E-2	9,466006279E0	-1,268195957E-1	9,467044765E0
3,792101190E-1	-6,939185411E-2	9,470791817E0	-1,411765367E-1	9,472098167E0
3,804061080E-1	-7,896314561E-2	9,477970123E0	-1,507478207E-1	9,479497758E0
3,816020980E-1	-1,004985496E-1	9,492327690E0	-1,531406492E-1	9,494094849E0
3,827981400E-1	-1,220339537E-1	9,499505997E0	-1,459621787E-1	9,501411023E0
3,839941290E-1	-1,316052526E-1	9,521040916E0	-1,387837082E-1	9,522961776E0
3,851901190E-1	-1,244267747E-1	9,549755096E0	-1,339980662E-1	9,551505636E0
3,863861080E-1	-1,076770201E-1	9,573683739E0	-1,268195957E-1	9,575129131E0
3,875820980E-1	-1,004985496E-1	9,597611427E0	-1,196411327E-1	9,598883220E0
3,887780880E-1	-9,810572863E-2	9,602396965E0	-1,124626622E-1	9,603556636E0
3,899740770E-1	-9,332008660E-2	9,600004196E0	-1,004985496E-1	9,600983760E0
3,911700670E-1	-9,810572863E-2	9,607182503E0	-9,810572863E-2	9,608184277E0
3,923660560E-1	-1,004985496E-1	9,609575272E0	-1,028913707E-1	9,610651564E0
3,935620460E-1	-8,853443712E-2	9,604789734E0	-9,332008660E-2	9,605651088E0
3,947580350E-1	-8,853443712E-2	9,580862045E0	-7,417750359E-2	9,581558233E0
3,959540250E-1	-8,614161611E-2	9,552147865E0	-5,982056633E-2	9,552723576E0
3,971500670E-1	-6,939185411E-2	9,528220177E0	-5,742774159E-2	9,528645912E0
3,983460560E-1	-4,067798331E-2	9,497113228E0	-6,460621208E-2	9,497420088E0
3,995420460E-1	-1,196411345E-2	9,456435204E0	-6,699903309E-2	9,456680114E0
4,007380350E-1	1,196411345E-2	9,430113792E0	-6,460621208E-2	9,430342689E0
4,019340250E-1	2,632104978E-2	9,396614075E0	-7,417750359E-2	9,396943714E0
4,031300150E-1	2,153540403E-2	9,346364975E0	-7,417750359E-2	9,346684135E0
4,043260040E-1	3,589234129E-2	9,298508644E0	-6,221338734E-2	9,298786037E0
4,055219940E-1	7,178468257E-2	9,253045082E0	-4,785645381E-2	9,253447280E0
4,067179830E-1	1,076770201E-1	9,214759827E0	-4,067798331E-2	9,215478702E0
4,079139730E-1	1,339980662E-1	9,171689034E0	-4,546362907E-2	9,172780503E0
4,091099630E-1	1,507478207E-1	9,114261627E0	-5,742774159E-2	9,115689105E0
4,103059520E-1	1,579262912E-1	9,056833267E0	-6,460621208E-2	9,058440457E0
4,115019420E-1	1,483550072E-1	9,001798630E0	-7,657032460E-2	9,003346644E0
4,126979830E-1	1,292124242E-1	8,941978455E0	-1,052841991E-1	8,943531701E0
4,138939730E-1	1,052841991E-1	8,879764557E0	-1,603191197E-1	8,881835709E0
4,150899630E-1	7,417750359E-2	8,803194046E0	-2,225325108E-1	8,806318665E0
4,162861600E-1	4,307080805E-2	8,719446182E0	-2,727817893E-1	8,723818357E0
4,174819420E-1	-7,178467698E-3	8,645268440E0	-3,158525825E-1	8,651039289E0
4,186779310E-1	-7,417750359E-2	8,590232849E0	-3,517449200E-1	8,597751287E0
4,198739210E-1	-1,603191197E-1	8,537590981E0	-3,661018610E-1	8,546940537E0
4,210699100E-1	-2,512463629E-1	8,480163574E0	-3,589234054E-1	8,491473664E0
4,222659000E-1	-3,110669553E-1	8,422736168E0	-3,373879790E-1	8,435228382E0
4,234618900E-1	-3,684946895E-1	8,367700577E0	-3,182454109E-1	8,381854295E0
4,246578790E-1	-4,642075896E-1	8,307880402E0	-3,158525825E-1	8,326831829E0
4,258538690E-1	-5,742774606E-1	8,248059273E0	-3,206382394E-1	8,274242276E0
4,270498580E-1	-6,819544435E-1	8,190631866E0	-3,397808075E-1	8,225993146E0
4,282458480E-1	-7,872386575E-1	8,147561073E0	-3,541377485E-1	8,193162374E0
4,294418900E-1	-8,901300430E-1	8,109275818E0	-3,541377485E-1	8,165665884E0
4,306378790E-1	-1,000199914E0	8,051848412E0	-3,469592929E-1	8,121147915E0
4,318338690E-1	-1,138983607E0	7,977670670E0	-3,493520916E-1	8,066136613E0
4,330298580E-1	-1,320838094E0	7,908278942E0	-3,732803464E-1	8,026507791E0
4,342258480E-1	-1,505085468E0	7,850851059E0	-3,876372576E-1	8,003212309E0
4,354218380E-1	-1,672582984E0	7,795815945E0	-3,924229145E-1	7,982873908E0
4,366178270E-1	-1,854437590E0	7,757531166E0	-4,091726840E-1	7,986591942E0
4,378138170E-1	-2,031506538E0	7,714460373E0	-4,378865361E-1	7,989471965E0
4,390098060E-1	-2,141576290E0	7,582854748E0	-9,140582681E-1	7,932309730E0
4,402057960E-1	-2,179861546E0	7,420143127E0	-1,670190215E0	7,912007062E0
4,414017850E-1	-2,172683001E0	7,336394310E0	-1,897508383E0	7,883132052E0
4,425978270E-1	-2,072184324E0	7,252645493E0	-1,390229940E0	7,669912242E0
4,437938170E-1	-1,698904037E0	6,905686378E0	-3,014956415E-1	7,117982784E0
4,449898060E-1	-1,045663476E0	6,175875187E0	1,021735311E0	6,346557293E0
4,461857960E-1	-6,197410822E-1	5,577669621E0	2,105684042E0	5,994028920E0
4,473817850E-1	-6,747759581E-1	5,381458282E0	2,648854733E0	6,035879988E0
4,485777750E-1	-1,021735311E0	5,400600910E0	2,835494757E0	6,184695930E0
4,497737650E-1	-1,529013634E0	5,556134224E0	2,837887764E0	6,423559540E0
4,509697540E-1	-2,086541414E0	5,740381718E0	2,718246460E0	6,685394615E0
4,521657440E-1	-2,632104874E0	5,831308842E0	2,407179594E0	6,835689612E0
4,533617330E-1	-3,208775282E0	5,778666496E0	1,820937991E0	6,856022203E0
4,545577230E-1	-3,672982693E0	5,730810165E0	1,153340459E0	6,903852637E0
4,557537130E-1	-3,811766386E0	5,773880959E0	8,063812256E-1	6,965451528E0
4,569497540E-1	-3,627519131E0	5,778666496E0	7,465606928E-1	6,863616713E0
4,581457440E-1	-3,318845034E0	5,381458282E0	4,594219327E-1	6,339234505E0
4,593417330E-1	-2,780459881E0	4,594219685E0	2,751746178E-1	5,377130529E0
4,605377230E-1	-1,761117458E0	3,560520172E0	2,799602449E-1	3,982112045E0
4,617337130E-1	-6,795616150E-1	2,335394859E0	2,823530734E-1	2,448590696E0
4,629297020E-1	-1,268195957E-1	1,292124271E0	2,871387303E-1	1,329705604E0
4,641256920E-1	-1,196411345E-2	6,340979934E-1	1,363908947E-1	6,487109382E-1
4,653216810E-1	1,674975827E-2	2,871387303E-1	3,589234129E-2	2,898576633E-1
4,665176710E-1	2,392822690E-2	1,076770201E-1	7,178467698E-3	1,105370124E-1
4,677136600E-1	1,914258115E-2	7,178467698E-3	-2,153540403E-2	2,969414821E-2
4,689096500E-1	1,674975827E-2	-4,307080805E-2	-3,349951655E-2	5,707772348E-2
4,701056400E-1	1,196411345E-2	-6,221338734E-2	-3,828516230E-2	7,402296419E-2
4,713016290E-1	1,435693540E-2	-6,699903309E-2	-4,067798331E-2	7,968494435E-2
4,724976710E-1	1,674975827E-2	-5,503492057E-2	-5,024927482E-2	7,638315590E-2
4,736936600E-1	2,153540403E-2	-4,785645381E-2	-4,546362907E-2	6,943309993E-2
4,748896500E-1	2,632104978E-2	-5,024927482E-2	-4,785645381E-2	7,421608621E-2
4,760856400E-1	2,632104978E-2	-5,503492057E-2	-5,264209956E-2	8,057810366E-2
4,772816290E-1	1,674975827E-2	-6,460621208E-2	-5,503492057E-2	8,650641320E-2
4,784776190E-1	2,392822690E-2	-7,178468257E-2	-5,982056633E-2	9,645776718E-2
4,796736080E-1	3,828516230E-2	-7,417750359E-2	-6,460621208E-2	1,055557593E-1
4,808695980E-1	3,589234129E-2	-6,939185411E-2	-6,221338734E-2	9,986989108E-2
4,820655880E-1	2,632104978E-2	-6,699903309E-2	-6,221338734E-2	9,514291178E-2
4,832615770E-1	2,392822690E-2	-6,699903309E-2	-6,221338734E-2	9,450892044E-2
4,844575670E-1	2,632104978E-2	-7,178468257E-2	-6,699903309E-2	1,016597696E-1
4,856535560E-1	2,632104978E-2	-7,178468257E-2	-6,699903309E-2	1,016597696E-1
4,868495460E-1	2,871387079E-2	-6,460621208E-2	-5,982056633E-2	9,261181982E-2
4,880455880E-1	3,828516230E-2	-6,699903309E-2	-5,982056633E-2	9,763771937E-2
4,892415770E-1	4,307080805E-2	-6,699903309E-2	-6,221338734E-2	1,010666637E-1
4,904375670E-1	4,067798331E-2	-6,939185411E-2	-6,699903309E-2	1,046842786E-1
4,916335560E-1	3,589234129E-2	-7,178468257E-2	-6,699903309E-2	1,045474593E-1
4,928295460E-1	3,589234129E-2	-6,460621208E-2	-6,460621208E-2	9,816407409E-2
4,940255350E-1	3,110669367E-2	-5,503492057E-2	-6,221338734E-2	8,869596630E-2
4,952215250E-1	2,153540403E-2	-5,264209956E-2	-6,221338734E-2	8,429394899E-2
4,964175150E-1	1,674975827E-2	-5,982056633E-2	-5,503492057E-2	8,299335540E-2
4,976135040E-1	1,435693540E-2	-6,221338734E-2	-4,546362907E-2	7,838092068E-2
4,988094940E-1	1,914258115E-2	-5,982056633E-2	-4,785645381E-2	7,896314798E-2
5,000054830E-1	1,914258115E-2	-6,221338734E-2	-5,264209956E-2	8,371460221E-2
5,012014730E-1	1,196411345E-2	-6,221338734E-2	-5,264209956E-2	8,237011728E-2
5,023974630E-1	1,674975827E-2	-6,460621208E-2	-5,264209956E-2	8,500416277E-2
5,035935040E-1	2,871387079E-2	-6,460621208E-2	-5,264209956E-2	8,814555951E-2
5,047894940E-1	3,110669367E-2	-5,982056633E-2	-5,982056633E-2	9,013671118E-2
5,059854310E-1	2,392822690E-2	-5,742774159E-2	-6,460621208E-2	8,969095933E-2
5,071814730E-1	1,914258115E-2	-5,742774159E-2	-5,742774159E-2	8,344057419E-2
5,083774630E-1	2,392822690E-2	-6,221338734E-2	-5,024927482E-2	8,347487782E-2
5,095734520E-1	2,392822690E-2	-7,657032460E-2	-5,024927482E-2	9,466025709E-2
5,107694420E-1	1,674975827E-2	-8,135596663E-2	-5,503492057E-2	9,964030405E-2
5,119654310E-1	1,914258115E-2	-6,699903309E-2	-5,982056633E-2	9,183577192E-2
5,131614210E-1	1,674975827E-2	-6,460621208E-2	-5,264209956E-2	8,500416277E-2
5,143574100E-1	4,785645287E-3	-6,699903309E-2	-6,221338734E-2	9,155478360E-2
5,155534000E-1	4,785645287E-3	-5,982056633E-2	-7,657032460E-2	9,728523611E-2
5,167493900E-1	1,435693540E-2	-5,024927482E-2	-7,178468257E-2	8,879274670E-2
5,179454310E-1	2,392822690E-2	-5,982056633E-2	-6,699903309E-2	9,295122718E-2
5,191414210E-1	2,632104978E-2	-6,460621208E-2	-6,460621208E-2	9,508271631E-2
5,203374100E-1	2,871387079E-2	-5,742774159E-2	-6,460621208E-2	9,108454599E-2
5,215334000E-1	3,349951655E-2	-6,221338734E-2	-6,939185411E-2	9,903510786E-2
5,227293900E-1	4,067798331E-2	-6,460621208E-2	-6,699903309E-2	1,015752499E-1
5,239253790E-1	4,307080805E-2	-6,460621208E-2	-6,460621208E-2	1,010099984E-1
5,251213690E-1	4,546362907E-2	-6,939185411E-2	-6,699903309E-2	1,066350853E-1
5,263173580E-1	4,307080805E-2	-7,417750359E-2	-6,460621208E-2	1,073841664E-1
5,275133480E-1	3,349951655E-2	-7,896314561E-2	-5,982056633E-2	1,045748351E-1
5,287093380E-1	1,674975827E-2	-8,135596663E-2	-6,699903309E-2	1,067155947E-1
5,299053270E-1	1,435693540E-2	-8,135596663E-2	-6,939185411E-2	1,078895005E-1
5,311013170E-1	1,435693540E-2	-7,657032460E-2	-6,699903309E-2	1,027521612E-1
5,322973060E-1	1,196411345E-2	-7,417750359E-2	-6,460621208E-2	9,909290937E-2
5,334932960E-1	1,674975827E-2	-7,178468257E-2	-6,221338734E-2	9,645776598E-2
5,346893380E-1	2,392822690E-2	-6,221338734E-2	-6,460621208E-2	9,282794970E-2
5,358853270E-1	3,349951655E-2	-5,982056633E-2	-7,178468257E-2	9,926609903E-2
5,370813170E-1	2,392822690E-2	-5,742774159E-2	-7,178468257E-2	9,499234810E-2
5,382773060E-1	1,196411345E-2	-5,264209956E-2	-6,221338734E-2	8,237011728E-2
5,394732960E-1	1,196411345E-2	-5,742774159E-2	-6,460621208E-2	8,726424327E-2
5,406692850E-1	1,914258115E-2	-6,221338734E-2	-6,460621208E-2	9,171099507E-2
5,418652750E-1	2,153540403E-2	-6,699903309E-2	-6,460621208E-2	9,553327536E-2
5,430612650E-1	2,153540403E-2	-7,417750359E-2	-6,221338734E-2	9,917954038E-2
5,442572540E-1	2,632104978E-2	-7,178468257E-2	-5,742774159E-2	9,562313432E-2
5,454532440E-1	3,349951655E-2	-5,982056633E-2	-5,982056633E-2	9,099020783E-2
5,466492330E-1	2,871387079E-2	-5,982056633E-2	-6,699903309E-2	9,429664346E-2
5,478452230E-1	1,914258115E-2	-6,699903309E-2	-6,699903309E-2	9,666529514E-2
5,490412650E-1	1,435693540E-2	-7,178468257E-2	-6,460621208E-2	9,763772265E-2
5,502372540E-1	1,196411345E-2	-7,657032460E-2	-6,221338734E-2	9,938138751E-2
5,514332440E-1	2,153540403E-2	-7,178468257E-2	-5,264209956E-2	9,158605202E-2
5,526292330E-1	3,828516230E-2	-5,742774159E-2	-5,264209956E-2	8,680374302E-2
5,538252230E-1	3,589234129E-2	-4,785645381E-2	-5,503492057E-2	8,128556339E-2
5,550212130E-1	2,871387079E-2	-4,785645381E-2	-5,264209956E-2	7,671973144E-2
5,562172020E-1	3,110669367E-2	-5,742774159E-2	-5,264209956E-2	8,388541316E-2
5,574131920E-1	3,110669367E-2	-6,221338734E-2	-5,742774159E-2	9,020020765E-2
5,586091810E-1	2,632104978E-2	-5,264209956E-2	-5,982056633E-2	8,391953565E-2
5,598051710E-1	1,674975827E-2	-4,067798331E-2	-6,221338734E-2	7,619552673E-2
5,610011600E-1	1,914258115E-2	-4,067798331E-2	-6,460621208E-2	7,870895361E-2
5,621971500E-1	1,674975827E-2	-4,546362907E-2	-6,699903309E-2	8,268232221E-2
5,633931920E-1	1,914258115E-2	-4,785645381E-2	-6,460621208E-2	8,264769339E-2
5,645891290E-1	1,435693540E-2	-4,546362907E-2	-6,221338734E-2	7,838092068E-2
5,657851710E-1	2,392822644E-3	-3,828516230E-2	-6,460621208E-2	7,513615569E-2
5,669811600E-1	4,785645287E-3	-3,110669367E-2	-6,699903309E-2	7,402296419E-2
5,681771500E-1	1,435693540E-2	-4,067798331E-2	-6,460621208E-2	7,768386293E-2
5,693731400E-1	2,392822690E-2	-5,024927482E-2	-6,221338734E-2	8,347487782E-2
5,705691290E-1	2,871387079E-2	-5,024927482E-2	-5,982056633E-2	8,323446493E-2
5,717651190E-1	3,589234129E-2	-5,024927482E-2	-6,221338734E-2	8,765703250E-2
5,729611080E-1	4,307080805E-2	-5,264209956E-2	-6,221338734E-2	9,217803815E-2
5,741570980E-1	4,067798331E-2	-5,742774159E-2	-5,982056633E-2	9,236419212E-2
5,753530880E-1	4,067798331E-2	-5,503492057E-2	-5,742774159E-2	8,933916450E-2
5,765490770E-1	2,871387079E-2	-4,785645381E-2	-5,503492057E-2	7,838092261E-2
5,777450670E-1	7,178467698E-3	-5,024927482E-2	-5,264209956E-2	7,312804294E-2
5,789411080E-1	-0,000000000E0	-5,982056633E-2	-4,785645381E-2	7,660770409E-2
5,801370980E-1	4,785645287E-3	-6,460621208E-2	-6,460621208E-2	9,149222743E-2
5,813330880E-1	1,196411345E-2	-6,699903309E-2	-7,178468257E-2	9,891941719E-2
5,825290770E-1	1,435693540E-2	-6,460621208E-2	-5,742774159E-2	8,762436726E-2
5,837250670E-1	1,196411345E-2	-6,460621208E-2	-4,785645381E-2	8,128556342E-2
5,849210560E-1	7,178467698E-3	-7,657032460E-2	-5,024927482E-2	9,186693980E-2
5,861170460E-1	9,571290575E-3	-8,614161611E-2	-5,264209956E-2	1,014060071E-1
5,873130350E-1	1,674975827E-2	-8,135596663E-2	-5,264209956E-2	9,833889543E-2
5,885090250E-1	1,435693540E-2	-6,699903309E-2	-5,024927482E-2	8,497047516E-2
5,897050150E-1	7,178467698E-3	-5,264209956E-2	-5,024927482E-2	7,312804294E-2
5,909010040E-1	1,196411345E-2	-4,546362907E-2	-5,742774159E-2	7,421608372E-2
5,920969940E-1	1,435693540E-2	-5,264209956E-2	-6,460621208E-2	8,456521081E-2
5,932929830E-1	2,392822690E-2	-6,221338734E-2	-6,699903309E-2	9,450892044E-2
5,944889730E-1	3,589234129E-2	-5,982056633E-2	-6,460621208E-2	9,508271640E-2
5,956849630E-1	3,110669367E-2	-5,982056633E-2	-5,982056633E-2	9,013671118E-2
5,968810040E-1	2,871387079E-2	-5,264209956E-2	-5,264209956E-2	7,979265422E-2
5,980769940E-1	3,349951655E-2	-5,264209956E-2	-5,742774159E-2	8,480184997E-2
5,992729830E-1	4,067798331E-2	-5,982056633E-2	-5,982056633E-2	9,387064844E-2
6,004689730E-1	4,307080805E-2	-6,460621208E-2	-5,742774159E-2	9,657640835E-2
6,016649630E-1	4,067798331E-2	-7,417750359E-2	-5,742774159E-2	1,022494297E-1
6,028609520E-1	3,828516230E-2	-8,135596663E-2	-5,264209956E-2	1,041908710E-1
6,040569420E-1	4,785645381E-2	-6,939185411E-2	-5,264209956E-2	9,938138776E-2
6,052529310E-1	4,307080805E-2	-6,699903309E-2	-4,785645381E-2	9,292042355E-2
6,064489210E-1	2,632104978E-2	-8,135596663E-2	-4,785645381E-2	9,798893375E-2
6,076449100E-1	1,674975827E-2	-7,417750359E-2	-6,221338734E-2	9,825152419E-2
6,088409000E-1	2,392822690E-2	-6,460621208E-2	-7,178468257E-2	9,949654936E-2
6,100369420E-1	2,632104978E-2	-6,699903309E-2	-6,221338734E-2	9,514291178E-2
6,112329310E-1	2,392822690E-2	-5,982056633E-2	-4,307080805E-2	7,749938519E-2
6,124289210E-1	1,914258115E-2	-6,221338734E-2	-3,589234129E-2	7,433171692E-2
6,136249100E-1	1,674975827E-2	-6,699903309E-2	-4,546362907E-2	8,268232221E-2
6,148209000E-1	1,914258115E-2	-5,503492057E-2	-5,264209956E-2	7,852688420E-2
6,160168900E-1	2,392822690E-2	-5,503492057E-2	-6,221338734E-2	8,644019950E-2
6,172128790E-1	2,392822690E-2	-6,699903309E-2	-6,699903309E-2	9,772564102E-2
6,184088690E-1	2,153540403E-2	-6,460621208E-2	-5,742774159E-2	8,908244367E-2
6,196048580E-1	1,435693540E-2	-6,221338734E-2	-6,221338734E-2	8,914669216E-2
6,208008480E-1	1,674975827E-2	-6,699903309E-2	-6,699903309E-2	9,622003572E-2
6,219968380E-1	3,110669367E-2	-6,939185411E-2	-6,460621208E-2	9,978385865E-2
6,231928270E-1	3,828516230E-2	-6,699903309E-2	-5,742774159E-2	9,619027805E-2
6,243888170E-1	3,589234129E-2	-6,221338734E-2	-5,264209956E-2	8,905030249E-2
6,255848580E-1	3,349951655E-2	-5,982056633E-2	-5,742774159E-2	8,943524623E-2
6,267808480E-1	3,349951655E-2	-5,982056633E-2	-6,460621208E-2	9,420552215E-2
6,279768380E-1	2,632104978E-2	-6,699903309E-2	-6,699903309E-2	9,833889634E-2
6,291728270E-1	2,632104978E-2	-7,178468257E-2	-6,460621208E-2	1,000989558E-1
6,303688170E-1	1,674975827E-2	-6,221338734E-2	-5,982056633E-2	8,791791696E-2
6,315648060E-1	-0,000000000E0	-5,264209956E-2	-5,742774159E-2	7,790466064E-2
6,327607960E-1	4,785645287E-3	-5,264209956E-2	-5,742774159E-2	7,805151216E-2
6,339567850E-1	1,914258115E-2	-5,742774159E-2	-5,503492057E-2	8,181214090E-2
6,351527750E-1	1,674975827E-2	-6,699903309E-2	-5,503492057E-2	8,830779875E-2
6,363487650E-1	1,674975827E-2	-6,699903309E-2	-4,785645381E-2	8,402181270E-2
6,375447540E-1	1,674975827E-2	-5,742774159E-2	-4,785645381E-2	7,660770246E-2
6,387407440E-1	2,392822690E-2	-5,264209956E-2	-5,024927482E-2	7,660770398E-2
6,399367330E-1	3,110669367E-2	-5,503492057E-2	-5,024927482E-2	8,075554776E-2
6,411327750E-1	4,067798331E-2	-5,742774159E-2	-5,503492057E-2	8,933916450E-2
6,423287650E-1	3,828516230E-2	-6,221338734E-2	-5,503492057E-2	9,146092991E-2
6,435247540E-1	2,632104978E-2	-6,699903309E-2	-5,982056633E-2	9,359577048E-2
6,447207440E-1	1,914258115E-2	-6,699903309E-2	-6,221338734E-2	9,341206781E-2
6,459167330E-1	2,153540403E-2	-6,699903309E-2	-5,742774159E-2	9,083275602E-2
6,471127230E-1	2,153540403E-2	-7,178468257E-2	-5,024927482E-2	9,023194500E-2
6,483087130E-1	2,871387079E-2	-6,939185411E-2	-5,264209956E-2	9,171099410E-2
6,495047020E-1	4,067798331E-2	-6,699903309E-2	-5,742774159E-2	9,716745477E-2
6,507006920E-1	4,785645381E-2	-6,699903309E-2	-5,742774159E-2	1,003845412E-1
6,518966810E-1	4,067798331E-2	-6,699903309E-2	-5,264209956E-2	9,441800362E-2
6,530926710E-1	2,632104978E-2	-5,982056633E-2	-5,024927482E-2	8,243959872E-2
6,542886600E-1	2,392822690E-2	-5,264209956E-2	-5,264209956E-2	7,819809035E-2
6,554846500E-1	1,435693540E-2	-5,742774159E-2	-5,264209956E-2	7,921652444E-2
6,566806400E-1	1,196411345E-2	-6,221338734E-2	-4,785645381E-2	7,939701346E-2
6,578766810E-1	2,153540403E-2	-6,460621208E-2	-4,785645381E-2	8,323446664E-2
6,590726710E-1	2,392822690E-2	-6,460621208E-2	-5,024927482E-2	8,527316285E-2
6,602686600E-1	1,914258115E-2	-5,982056633E-2	-5,264209956E-2	8,195199335E-2
6,614646500E-1	2,153540403E-2	-6,221338734E-2	-5,503492057E-2	8,580863403E-2
6,626606400E-1	2,153540403E-2	-6,460621208E-2	-5,264209956E-2	8,607512365E-2
6,638566290E-1	2,392822690E-2	-5,982056633E-2	-5,024927482E-2	8,170709772E-2
6,650526190E-1	2,871387079E-2	-5,264209956E-2	-5,264209956E-2	7,979265422E-2
6,662486080E-1	3,110669367E-2	-5,024927482E-2	-5,503492057E-2	8,075554776E-2
6,674445980E-1	4,067798331E-2	-5,503492057E-2	-5,264209956E-2	8,634078674E-2
6,686405880E-1	4,546362907E-2	-5,742774159E-2	-5,024927482E-2	8,882497786E-2
6,698365770E-1	3,349951655E-2	-5,982056633E-2	-5,264209956E-2	8,644020136E-2
6,710325670E-1	2,392822690E-2	-5,503492057E-2	-5,742774159E-2	8,306231413E-2
6,722286080E-1	2,632104978E-2	-5,024927482E-2	-5,742774159E-2	8,072008911E-2
6,734245980E-1	3,828516230E-2	-5,982056633E-2	-6,221338734E-2	9,441800343E-2
6,746205880E-1	4,067798331E-2	-6,699903309E-2	-6,221338734E-2	1,000703469E-1
6,758165770E-1	4,307080805E-2	-6,939185411E-2	-5,264209956E-2	9,716745633E-2
6,770125670E-1	3,828516230E-2	-5,742774159E-2	-4,785645381E-2	8,398773319E-2
6,782085560E-1	2,632104978E-2	-5,503492057E-2	-4,785645381E-2	7,753631610E-2
6,794045460E-1	2,871387079E-2	-5,742774159E-2	-5,742774159E-2	8,614161238E-2
6,806005350E-1	3,589234129E-2	-5,503492057E-2	-5,742774159E-2	8,726424325E-2
6,817965250E-1	3,110669367E-2	-5,742774159E-2	-5,742774159E-2	8,696848509E-2
6,829925150E-1	3,589234129E-2	-5,264209956E-2	-6,460621208E-2	9,073815872E-2
6,841885040E-1	4,067798331E-2	-5,264209956E-2	-6,460621208E-2	9,273538490E-2
6,853844940E-1	2,871387079E-2	-5,503492057E-2	-6,460621208E-2	8,959515332E-2
6,865804830E-1	2,632104978E-2	-5,264209956E-2	-6,699903309E-2	8,917880209E-2
6,877764730E-1	2,392822690E-2	-4,546362907E-2	-6,221338734E-2	8,068461548E-2
6,889724630E-1	2,153540403E-2	-4,785645381E-2	-5,024927482E-2	7,265675067E-2
6,901685040E-1	2,871387079E-2	-5,024927482E-2	-5,024927482E-2	7,664506257E-2
6,913644940E-1	2,871387079E-2	-5,024927482E-2	-5,982056633E-2	8,323446493E-2
6,925604830E-1	3,110669367E-2	-6,699903309E-2	-6,460621208E-2	9,813490442E-2
6,937564730E-1	4,067798331E-2	-7,657032460E-2	-6,939185411E-2	1,110537814E-1
6,949524630E-1	4,067798331E-2	-6,699903309E-2	-7,657032460E-2	1,095745562E-1
6,961484520E-1	2,871387079E-2	-5,982056633E-2	-6,939185411E-2	9,601154070E-2
6,973444420E-1	1,914258115E-2	-5,503492057E-2	-6,221338734E-2	8,523958271E-2
6,985404310E-1	1,674975827E-2	-5,024927482E-2	-6,460621208E-2	8,354344176E-2
6,997364210E-1	1,674975827E-2	-5,742774159E-2	-6,221338734E-2	8,630762116E-2
7,009324100E-1	1,196411345E-2	-6,221338734E-2	-5,982056633E-2	8,713291990E-2
7,021284000E-1	7,178467698E-3	-5,503492057E-2	-5,982056633E-2	8,160191809E-2
7,033243900E-1	4,785645287E-3	-4,785645381E-2	-6,699903309E-2	8,247431726E-2
7,045204310E-1	4,785645287E-3	-4,307080805E-2	-7,417750359E-2	8,590866630E-2
7,057164210E-1	4,785645287E-3	-4,785645381E-2	-6,939185411E-2	8,442968665E-2
7,069124100E-1	9,571290575E-3	-6,221338734E-2	-6,221338734E-2	8,850209451E-2
7,081084000E-1	9,571290575E-3	-6,460621208E-2	-5,503492057E-2	8,540734585E-2
7,093043900E-1	2,392822690E-2	-6,221338734E-2	-5,264209956E-2	8,493677798E-2
7,105003790E-1	2,871387079E-2	-5,982056633E-2	-5,982056633E-2	8,933916659E-2
7,116963690E-1	2,871387079E-2	-5,742774159E-2	-6,460621208E-2	9,108454599E-2
7,128923580E-1	3,828516230E-2	-5,742774159E-2	-6,460621208E-2	9,453920772E-2
7,140883480E-1	3,349951655E-2	-5,982056633E-2	-6,460621208E-2	9,420552215E-2
7,152843380E-1	2,632104978E-2	-5,742774159E-2	-6,699903309E-2	9,208481743E-2
7,164803270E-1	2,871387079E-2	-5,024927482E-2	-6,939185411E-2	9,035875947E-2
7,176763170E-1	2,392822690E-2	-3,828516230E-2	-6,939185411E-2	8,278612874E-2
7,188723060E-1	2,153540403E-2	-4,067798331E-2	-6,221338734E-2	7,738848440E-2
7,200683480E-1	2,153540403E-2	-5,024927482E-2	-5,503492057E-2	7,757322817E-2
7,212643380E-1	1,674975827E-2	-6,221338734E-2	-6,699903309E-2	9,295122593E-2
7,224603270E-1	1,435693540E-2	-7,178468257E-2	-7,896314561E-2	1,076770199E-1
7,236563170E-1	1,196411345E-2	-6,939185411E-2	-7,896314561E-2	1,057995642E-1
7,248523060E-1	1,674975827E-2	-5,982056633E-2	-7,896314561E-2	1,004700598E-1
7,260482960E-1	2,632104978E-2	-5,503492057E-2	-7,178468257E-2	9,420552423E-2
7,272442850E-1	2,871387079E-2	-5,503492057E-2	-5,742774159E-2	8,456520775E-2
7,284402750E-1	2,632104978E-2	-5,982056633E-2	-5,742774159E-2	8,700139838E-2
7,296362650E-1	2,871387079E-2	-6,221338734E-2	-6,939185411E-2	9,752036381E-2
7,308322540E-1	3,110669367E-2	-5,742774159E-2	-7,417750359E-2	9,883255503E-2
7,320282440E-1	2,871387079E-2	-4,785645381E-2	-6,699903309E-2	8,719860654E-2
7,332242330E-1	2,871387079E-2	-5,024927482E-2	-5,982056633E-2	8,323446493E-2
7,344202230E-1	3,349951655E-2	-5,742774159E-2	-5,503492057E-2	8,630762188E-2
7,356162650E-1	3,349951655E-2	-5,742774159E-2	-5,503492057E-2	8,630762188E-2
7,368122540E-1	2,871387079E-2	-5,024927482E-2	-5,024927482E-2	7,664506257E-2
7,380082440E-1	2,632104978E-2	-5,264209956E-2	-4,307080805E-2	7,293204244E-2
7,392042330E-1	2,153540403E-2	-5,264209956E-2	-4,546362907E-2	7,281418708E-2
7,404002230E-1	1,914258115E-2	-4,067798331E-2	-5,264209956E-2	6,922663783E-2
7,415962130E-1	1,674975827E-2	-4,785645381E-2	-5,024927482E-2	7,138476163E-2
7,427922020E-1	2,153540403E-2	-5,982056633E-2	-5,024927482E-2	8,103865375E-2
7,439881920E-1	2,632104978E-2	-6,699903309E-2	-5,503492057E-2	9,061186776E-2
7,451841810E-1	2,632104978E-2	-6,939185411E-2	-6,460621208E-2	9,839710218E-2
7,463801710E-1	3,349951655E-2	-5,503492057E-2	-6,699903309E-2	9,295122660E-2
7,475761600E-1	3,110669367E-2	-5,024927482E-2	-6,699903309E-2	8,933916524E-2
7,487721500E-1	2,392822690E-2	-5,503492057E-2	-6,699903309E-2	8,994594466E-2
7,499681400E-1	2,632104978E-2	-5,742774159E-2	-5,503492057E-2	8,378296753E-2
7,511641810E-1	2,632104978E-2	-5,024927482E-2	-4,307080805E-2	7,122416576E-2
7,523601710E-1	1,914258115E-2	-5,024927482E-2	-4,546362907E-2	7,041569144E-2
7,535561600E-1	1,435693540E-2	-5,742774159E-2	-4,307080805E-2	7,320629484E-2
7,547521500E-1	1,196411345E-2	-5,982056633E-2	-4,307080805E-2	7,467753794E-2
7,559481400E-1	1,914258115E-2	-5,982056633E-2	-5,024927482E-2	8,043586382E-2
7,571441290E-1	2,871387079E-2	-6,221338734E-2	-6,221338734E-2	9,254997301E-2
7,583401190E-1	2,392822690E-2	-6,221338734E-2	-6,460621208E-2	9,282794970E-2
7,595361080E-1	1,674975827E-2	-5,503492057E-2	-6,221338734E-2	8,473430503E-2
7,607320980E-1	1,435693540E-2	-5,264209956E-2	-6,460621208E-2	8,456521081E-2
7,619280880E-1	9,571290575E-3	-5,742774159E-2	-6,221338734E-2	8,520598965E-2
7,631240770E-1	9,571290575E-3	-5,982056633E-2	-5,503492057E-2	8,184712726E-2
7,643200670E-1	7,178467698E-3	-5,982056633E-2	-5,503492057E-2	8,160191809E-2
7,655160560E-1	1,196411345E-2	-5,742774159E-2	-5,264209956E-2	7,881799389E-2
7,667120460E-1	2,153540403E-2	-5,264209956E-2	-5,503492057E-2	7,914421492E-2
7,679080880E-1	3,349951655E-2	-4,307080805E-2	-6,221338734E-2	8,275154186E-2
7,691040770E-1	4,307080805E-2	-3,110669367E-2	-5,982056633E-2	8,000763122E-2
7,703000670E-1	3,349951655E-2	-3,589234129E-2	-6,221338734E-2	7,925265507E-2
7,714960560E-1	2,632104978E-2	-4,785645381E-2	-6,939185411E-2	8,830779835E-2
7,726920460E-1	2,392822690E-2	-4,785645381E-2	-6,460621208E-2	8,388541502E-2
7,738880350E-1	2,392822690E-2	-5,264209956E-2	-6,460621208E-2	8,670474801E-2
7,750840250E-1	2,153540403E-2	-6,460621208E-2	-5,982056633E-2	9,064345769E-2
7,762800150E-1	1,674975827E-2	-6,699903309E-2	-5,024927482E-2	8,540734428E-2
7,774760040E-1	2,392822690E-2	-6,939185411E-2	-5,503492057E-2	9,174220371E-2
7,786719940E-1	2,871387079E-2	-6,460621208E-2	-5,503492057E-2	8,959515332E-2
7,798679830E-1	2,392822690E-2	-5,264209956E-2	-5,264209956E-2	7,819809035E-2
7,810639730E-1	1,674975827E-2	-4,785645381E-2	-5,264209956E-2	7,308888574E-2
7,822600150E-1	1,674975827E-2	-4,067798331E-2	-5,024927482E-2	6,678504585E-2
7,834560040E-1	1,674975827E-2	-4,067798331E-2	-4,785645381E-2	6,500379142E-2
7,846519940E-1	1,674975827E-2	-4,546362907E-2	-4,785645381E-2	6,810092614E-2
7,858479830E-1	2,632104978E-2	-4,785645381E-2	-4,546362907E-2	7,106320708E-2
7,870439730E-1	2,632104978E-2	-4,546362907E-2	-4,546362907E-2	6,947431754E-2
7,882399630E-1	2,871387079E-2	-4,307080805E-2	-4,785645381E-2	7,049695776E-2
7,894359520E-1	4,067798331E-2	-4,307080805E-2	-5,503492057E-2	8,086182854E-2
7,906319420E-1	4,067798331E-2	-4,067798331E-2	-6,460621208E-2	8,650641186E-2
7,918279310E-1	3,349951655E-2	-4,546362907E-2	-7,178468257E-2	9,133564380E-2
7,930239210E-1	3,110669367E-2	-5,742774159E-2	-5,982056633E-2	8,856676606E-2
7,942199100E-1	3,828516230E-2	-5,742774159E-2	-5,264209956E-2	8,680374302E-2
7,954159000E-1	4,307080805E-2	-4,307080805E-2	-5,982056633E-2	8,537382016E-2
7,966118900E-1	3,828516230E-2	-4,307080805E-2	-6,221338734E-2	8,480184976E-2
7,978078790E-1	3,589234129E-2	-4,067798331E-2	-6,221338734E-2	8,254370996E-2
7,990038690E-1	3,110669367E-2	-3,828516230E-2	-6,699903309E-2	8,320006297E-2
8,001999100E-1	2,392822690E-2	-5,264209956E-2	-6,939185411E-2	9,032707294E-2
8,013959000E-1	1,914258115E-2	-6,221338734E-2	-6,939185411E-2	9,514291037E-2
8,025918900E-1	2,632104978E-2	-5,503492057E-2	-6,699903309E-2	9,061186776E-2
8,037878790E-1	3,110669367E-2	-4,546362907E-2	-6,699903309E-2	8,673775645E-2
8,049838690E-1	2,632104978E-2	-4,307080805E-2	-6,460621208E-2	8,198691851E-2
8,061798580E-1	2,632104978E-2	-3,589234129E-2	-6,221338734E-2	7,649551221E-2
8,073758480E-1	2,153540403E-2	-2,871387079E-2	-6,939185411E-2	7,812483228E-2
8,085718380E-1	2,392822644E-3	-3,349951655E-2	-6,939185411E-2	7,709197510E-2
8,097678270E-1	-2,392822644E-3	-3,589234129E-2	-6,460621208E-2	7,394557730E-2
8,109638170E-1	1,674975827E-2	-4,067798331E-2	-6,939185411E-2	8,216131782E-2
8,121598060E-1	2,153540403E-2	-4,546362907E-2	-6,939185411E-2	8,570848623E-2
8,133557960E-1	1,914258115E-2	-3,828516230E-2	-6,939185411E-2	8,153172071E-2
8,145517850E-1	2,632104978E-2	-3,349951655E-2	-6,221338734E-2	7,540239277E-2
8,157478270E-1	2,871387079E-2	-5,024927482E-2	-5,264209956E-2	7,823468950E-2
8,169438170E-1	3,110669367E-2	-6,699903309E-2	-5,024927482E-2	8,933916524E-2
8,181398060E-1	3,110669367E-2	-5,742774159E-2	-5,024927482E-2	8,240486342E-2
8,193357960E-1	2,392822690E-2	-5,264209956E-2	-5,264209956E-2	7,819809035E-2
8,205317850E-1	1,914258115E-2	-4,785645381E-2	-5,024927482E-2	7,198380515E-2
8,217277750E-1	1,914258115E-2	-4,307080805E-2	-4,785645381E-2	6,716973344E-2
8,229237650E-1	1,674975827E-2	-4,307080805E-2	-5,503492057E-2	7,186439585E-2
8,241197540E-1	9,571290575E-3	-4,546362907E-2	-5,264209956E-2	7,021212016E-2
8,253157440E-1	2,392822644E-3	-4,785645381E-2	-4,546362907E-2	6,605230760E-2
8,265117330E-1	1,435693540E-2	-5,503492057E-2	-4,307080805E-2	7,134464649E-2
8,277077230E-1	2,871387079E-2	-5,503492057E-2	-3,828516230E-2	7,293204036E-2
8,289037130E-1	2,632104978E-2	-5,024927482E-2	-3,828516230E-2	6,843640065E-2
8,300997020E-1	3,110669367E-2	-4,067798331E-2	-4,307080805E-2	6,691352049E-2
8,312956920E-1	3,110669367E-2	-3,110669367E-2	-5,024927482E-2	6,678504625E-2
8,324916810E-1	2,392822690E-2	-4,067798331E-2	-5,742774159E-2	7,433171512E-2
8,336877230E-1	1,914258115E-2	-4,307080805E-2	-5,742774159E-2	7,429319231E-2
8,348837130E-1	1,435693540E-2	-5,264209956E-2	-5,503492057E-2	7,749938530E-2
8,360797020E-1	1,196411345E-2	-6,221338734E-2	-5,742774159E-2	8,550784221E-2
8,372756920E-1	7,178467698E-3	-5,982056633E-2	-5,742774159E-2	8,323446436E-2
8,384716810E-1	1,674975827E-2	-5,742774159E-2	-5,503492057E-2	8,128556076E-2
8,396676710E-1	2,632104978E-2	-5,982056633E-2	-5,264209956E-2	8,391953565E-2
8,408636600E-1	2,392822690E-2	-5,503492057E-2	-5,264209956E-2	7,982852354E-2
8,420596500E-1	2,632104978E-2	-5,024927482E-2	-5,503492057E-2	7,903562339E-2
8,432556400E-1	1,435693540E-2	-5,503492057E-2	-5,503492057E-2	7,914421368E-2
8,444516290E-1	7,178467698E-3	-4,546362907E-2	-5,264209956E-2	6,992612253E-2
8,456476190E-1	2,392822690E-2	-2,632104978E-2	-4,785645381E-2	5,962883426E-2
8,468436600E-1	3,349951655E-2	-2,871387079E-2	-4,546362907E-2	6,335333892E-2
8,480396500E-1	3,828516230E-2	-3,828516230E-2	-5,264209956E-2	7,551620985E-2
8,492356400E-1	4,067798331E-2	-4,067798331E-2	-6,221338734E-2	8,473430366E-2
8,504316290E-1	3,828516230E-2	-4,546362907E-2	-6,699903309E-2	8,956319364E-2
8,516276190E-1	2,871387079E-2	-3,589234129E-2	-6,460621208E-2	7,928877082E-2
8,528236080E-1	1,914258115E-2	-3,110669367E-2	-5,982056633E-2	7,008969225E-2
8,540195980E-1	2,392822690E-2	-3,349951655E-2	-5,264209956E-2	6,682790059E-2
8,552155880E-1	2,153540403E-2	-3,349951655E-2	-4,546362907E-2	6,043949705E-2
8,564115770E-1	2,392822690E-2	-3,589234129E-2	-4,307080805E-2	6,095830306E-2
8,576075670E-1	2,871387079E-2	-3,110669367E-2	-4,307080805E-2	6,039211268E-2
8,588035560E-1	-4,307080805E-2	2,560320199E-1	-5,264209956E-2	2,649125900E-1
8,599995460E-1	-1,148554832E-1	1,143769264E0	4,785645381E-2	1,150517341E0
8,611955350E-1	2,679961324E-1	3,725624800E0	-6,293123364E-1	3,787893358E0
8,623915250E-1	1,081555843E0	8,166703224E0	-1,548156261E0	8,382218823E0
8,635875670E-1	2,110469580E0	1,440479279E1	-1,397408366E0	1,462548759E1
8,647835560E-1	3,225524902E0	2,187279129E1	-4,450650215E-1	2,211382130E1
8,659795460E-1	4,220939159E0	2,911586571E1	7,226324677E-1	2,942910398E1
8,671755350E-1	4,934000492E0	3,641397476E1	5,766702294E-1	3,675125124E1
8,683715250E-1	5,886343479E0	4,628915405E1	-2,823530734E-1	4,666277473E1
8,695675150E-1	7,767102242E0	5,881318665E1	-2,057827473E0	5,935952707E1
8,707635040E-1	1,006660461E1	6,850172424E1	-5,513063431E0	6,945658083E1
8,719594940E-1	1,244267750E1	7,343333435E1	-8,791230202E0	7,499707025E1
8,731554830E-1	1,489292812E1	7,589794159E1	-1,114576817E1	7,814425759E1
8,743514730E-1	1,698425484E1	7,713263702E1	-1,268196011E1	7,999212911E1
8,755474630E-1	1,842712784E1	7,774759674E1	-1,297149181E1	8,094755981E1
8,767434520E-1	1,918325996E1	7,805626678E1	-1,150229836E1	8,119779008E1
8,779394420E-1	1,922154427E1	7,820941162E1	-8,693124771E0	8,100463103E1
8,791354310E-1	1,855633926E1	7,828836823E1	-5,335994720E0	8,063423073E1
8,803314730E-1	1,741257095E1	7,832666016E1	-2,057827473E0	8,026517285E1
8,815274630E-1	1,614916039E1	7,834580231E1	7,010970116E-1	7,999594776E1
8,827234520E-1	1,492403507E1	7,835536957E1	2,933600664E0	7,981789759E1
8,839194420E-1	1,373240948E1	7,836015320E1	4,599005222E0	7,968716037E1
8,851154310E-1	1,248574829E1	7,836254883E1	5,608776093E0	7,954898704E1
8,863114210E-1	1,114816093E1	7,836254883E1	5,927021503E0	7,937317012E1
8,875074100E-1	9,760323524E0	7,836254883E1	5,560919762E0	7,916360782E1
8,887034000E-1	8,374878883E0	7,836494446E1	4,673182487E0	7,894961527E1
8,898993900E-1	7,058826923E0	7,836494446E1	3,586841106E0	7,876393202E1
8,910953790E-1	5,879165173E0	7,836494446E1	2,641676188E0	7,862955905E1
8,922913690E-1	4,823930264E0	7,836494446E1	1,921436548E0	7,853678591E1
8,934873580E-1	3,888336897E0	7,836494446E1	1,447657704E0	7,847470546E1
8,946833480E-1	3,103491068E0	7,758009338E1	1,203589797E0	7,765147246E1
8,958793900E-1	2,447857618E0	7,398129272E1	1,134197950E0	7,403046728E1
8,970753790E-1	1,892722726E0	6,749434662E1	1,146162033E0	6,753060723E1
8,982713690E-1	1,428515077E0	5,998327637E1	1,158126116E0	6,001146020E1
8,994673580E-1	1,062413216E0	5,247938538E1	1,177268744E0	5,250333868E1
9,006633480E-1	7,489534616E-1	4,539184570E1	1,136590719E0	4,541224974E1
9,018593380E-1	4,642075896E-1	3,891686630E1	1,048056364E0	3,893374364E1
9,030553270E-1	2,440679073E-1	3,314298630E1	9,762716293E-1	3,315826015E1
9,042513170E-1	7,896314561E-2	2,795534706E1	8,973084688E-1	2,796985568E1
9,054473060E-1	-5,024927482E-2	2,331566429E1	7,848458290E-1	2,332892431E1
9,066432960E-1	-1,411765367E-1	1,919043732E1	6,699903607E-1	1,920264832E1
9,078392850E-1	-2,129612118E-1	1,551506233E1	5,742774606E-1	1,552714740E1
9,090352750E-1	-2,775674164E-1	1,224885941E1	4,953143001E-1	1,226201193E1
9,102312650E-1	-3,326023519E-1	9,355937004E0	4,474578202E-1	9,372534345E0
9,114273060E-1	-3,732803464E-1	6,793223381E0	4,067798555E-1	6,815621173E0
9,126232960E-1	-4,043870270E-1	4,541577339E0	3,661018610E-1	4,574219515E0
9,138192850E-1	-4,259224236E-1	2,598605394E0	3,086741269E-1	2,651309040E0
9,150152750E-1	-4,402793646E-1	9,451649189E-1	2,368894368E-1	1,069251723E0
9,162112650E-1	-4,498506486E-1	-4,402793646E-1	1,674975902E-1	6,513577878E-1
9,174072540E-1	-4,354937077E-1	-1,548156261E0	1,172483116E-1	1,612510386E0
9,186032440E-1	-3,972085714E-1	-2,395215511E0	8,374879509E-2	2,429371494E0
9,197992330E-1	-3,732803464E-1	-3,074777126E0	1,914258115E-2	3,097411667E0
9,209952230E-1	-3,397808075E-1	-3,605983734E0	-6,699903309E-2	3,622576232E0
9,221912130E-1	-2,919243574E-1	-4,029513359E0	-1,004985496E-1	4,041323756E0
9,233872020E-1	-2,656033039E-1	-4,331008911E0	-1,028913707E-1	4,340365185E0
9,245831920E-1	-2,368894368E-1	-4,503292084E0	-1,028913707E-1	4,510692057E0
9,257791810E-1	-2,105683982E-1	-4,591826439E0	-8,135596663E-2	4,597371846E0
9,269751710E-1	-2,009970993E-1	-4,622933388E0	-3,828516230E-2	4,627459205E0
9,281712130E-1	-1,914258152E-1	-4,615755081E0	1,435693540E-2	4,619745116E0
9,293672020E-1	-1,842473447E-1	-4,601397991E0	5,742774159E-2	4,605443356E0
9,305631920E-1	-1,938186288E-1	-4,587040901E0	8,614161611E-2	4,591941884E0
9,317591810E-1	-1,986042857E-1	-4,570291042E0	1,172483116E-1	4,576106537E0
9,329551710E-1	-1,962114573E-1	-4,572684288E0	1,387837082E-1	4,578995682E0
9,341511600E-1	-2,033899277E-1	-4,579862595E0	1,531406492E-1	4,586933715E0
9,353471500E-1	-1,986042857E-1	-4,579862595E0	1,674975902E-1	4,587225795E0
9,365431400E-1	-1,890329868E-1	-4,577469826E0	1,698904037E-1	4,584520283E0
9,377391290E-1	-1,938186288E-1	-4,582255363E0	1,746760458E-1	4,589677723E0
9,389351190E-1	-2,009970993E-1	-4,596612453E0	1,794617027E-1	4,604503489E0
9,401311080E-1	-2,153540403E-1	-4,613361835E0	1,794617027E-1	4,621870973E0
9,413270980E-1	-2,081755698E-1	-4,622933388E0	1,770688742E-1	4,631004595E0
9,425230880E-1	-1,866401732E-1	-4,634897232E0	1,842473447E-1	4,642311277E0
9,437190770E-1	-1,842473447E-1	-4,646861553E0	1,914258152E-1	4,654450904E0
9,449151190E-1	-2,009970993E-1	-4,649254322E0	1,890329868E-1	4,657434815E0
9,461111080E-1	-2,081755698E-1	-4,644468784E0	1,866401732E-1	4,652876735E0
9,473070980E-1	-2,009970993E-1	-4,649254322E0	1,890329868E-1	4,657434815E0
9,485030880E-1	-2,081755698E-1	-4,656432629E0	1,938186288E-1	4,665111741E0
9,496990770E-1	-2,129612118E-1	-4,668396950E0	1,914258152E-1	4,677170769E0
9,508950670E-1	-2,153540403E-1	-4,677968502E0	1,818545163E-1	4,686452575E0
9,520910560E-1	-2,153540403E-1	-4,682754040E0	1,770688742E-1	4,691046381E0
9,532870460E-1	-2,177468538E-1	-4,697110653E0	1,722832322E-1	4,705310159E0
9,544830350E-1	-2,177468538E-1	-4,723432064E0	1,746760458E-1	4,731673687E0
9,556790250E-1	-2,177468538E-1	-4,737788677E0	1,818545163E-1	4,746274993E0
9,568750150E-1	-2,273181528E-1	-4,747360229E0	1,842473447E-1	4,756369390E0
9,580710040E-1	-2,297109663E-1	-4,759324074E0	1,818545163E-1	4,768333444E0
9,592669940E-1	-2,344966233E-1	-4,771288395E0	1,794617027E-1	4,780417149E0
9,604630350E-1	-2,512463629E-1	-4,780859470E0	1,818545163E-1	4,790909420E0
9,616590250E-1	-2,584248483E-1	-4,788038254E0	1,818545163E-1	4,798454416E0
9,628550150E-1	-2,584248483E-1	-4,795216560E0	1,746760458E-1	4,805350870E0
9,640510040E-1	-2,632105052E-1	-4,809573650E0	1,674975902E-1	4,819681930E0
9,652469940E-1	-2,632105052E-1	-4,821537495E0	1,579262912E-1	4,831298407E0
9,664429830E-1	-2,560320199E-1	-4,838287354E0	1,555334777E-1	4,847552741E0
9,676389730E-1	-2,656033039E-1	-4,857429981E0	1,627119333E-1	4,867406528E0
9,688349630E-1	-2,823530734E-1	-4,871787071E0	1,698904037E-1	4,882918725E0
9,700309520E-1	-2,943171859E-1	-4,874179840E0	1,698904037E-1	4,886012123E0
9,712269420E-1	-3,062812984E-1	-4,878965378E0	1,603191197E-1	4,891197564E0
9,724229310E-1	-3,110669553E-1	-4,898108006E0	1,531406492E-1	4,910364217E0
9,736189210E-1	-3,158525825E-1	-4,912465096E0	1,603191197E-1	4,925218613E0
9,748149100E-1	-3,206382394E-1	-4,917250633E0	1,674975902E-1	4,930539333E0
9,760109000E-1	-3,349951804E-1	-4,919643402E0	1,698904037E-1	4,933961464E0
9,772069420E-1	-3,421736360E-1	-4,926821709E0	1,674975902E-1	4,941529155E0
9,784029310E-1	-3,421736360E-1	-4,936393261E0	1,651047617E-1	4,950991901E0
9,795989210E-1	-3,469592929E-1	-4,948357105E0	1,651047617E-1	4,963252802E0
9,807949100E-1	-3,589234054E-1	-4,957928658E0	1,698904037E-1	4,973805920E0
9,819909000E-1	-3,613162339E-1	-4,969892502E0	1,746760458E-1	4,986069857E0
9,831868900E-1	-3,613162339E-1	-4,986642361E0	1,746760458E-1	5,002765553E0
9,843828790E-1	-3,637090325E-1	-4,993820667E0	1,722832322E-1	5,010011041E0
9,855788690E-1	-3,732803464E-1	-4,993820667E0	1,770688742E-1	5,010881805E0
9,867748580E-1	-3,900300860E-1	-4,998606682E0	1,794617027E-1	5,017010936E0
9,879708480E-1	-4,043870270E-1	-5,010570526E0	1,746760458E-1	5,029896379E0
9,891668380E-1	-4,187439680E-1	-5,024927616E0	1,698904037E-1	5,045206320E0
9,903628270E-1	-4,354937077E-1	-5,041677475E0	1,651047617E-1	5,063143896E0
9,915588690E-1	-4,450650215E-1	-5,053641319E0	1,603191197E-1	5,075734004E0
9,927548580E-1	-4,450650215E-1	-5,065605640E0	1,627119333E-1	5,087722334E0
9,939508480E-1	-4,378865361E-1	-5,087141037E0	1,698904037E-1	5,108777867E0
9,951468380E-1	-4,378865361E-1	-5,103890896E0	1,722832322E-1	5,125536890E0
9,963428270E-1	-4,378865361E-1	-5,120640278E0	1,722832322E-1	5,142215766E0
9,975388170E-1	-4,354937077E-1	-5,134997368E0	1,722832322E-1	5,156310139E0
9,987348060E-1	-4,426721931E-1	-5,146961689E0	1,698904037E-1	5,168755754E0
9,999307960E-1	-4,594219327E-1	-5,154139996E0	1,698904037E-1	5,177363263E0
1,001126785E0	-4,761717021E-1	-5,156532764E0	1,698904037E-1	5,181257800E0
1,002322775E0	-4,833501875E-1	-5,175675392E0	1,651047617E-1	5,200817508E0
1,003518765E0	-4,953143001E-1	-5,197210789E0	1,579262912E-1	5,223148184E0
1,004714754E0	-5,120640397E-1	-5,209175110E0	1,651047617E-1	5,236885953E0
1,005910744E0	-5,192425251E-1	-5,218746185E0	1,818545163E-1	5,247665730E0
1,007106733E0	-5,431707501E-1	-5,228317261E0	1,818545163E-1	5,259601402E0
1,008302723E0	-5,575276613E-1	-5,242674351E0	1,818545163E-1	5,275371315E0
1,009498765E0	-5,551348329E-1	-5,252245903E0	1,842473447E-1	5,284714637E0
1,010694754E0	-5,623133183E-1	-5,261816978E0	1,818545163E-1	5,294901817E0
1,011890744E0	-5,694918036E-1	-5,276174068E0	1,842473447E-1	5,310017024E0
1,013086733E0	-5,647061467E-1	-5,283352375E0	1,770688742E-1	5,316395277E0
1,014282723E0	-5,814558864E-1	-5,290530682E0	1,698904037E-1	5,325097989E0
1,015478713E0	-6,029912829E-1	-5,300102234E0	1,722832322E-1	5,337074450E0
1,016674702E0	-6,053841114E-1	-5,312066078E0	1,746760458E-1	5,349303475E0
1,017870692E0	-6,029912829E-1	-5,335994720E0	1,770688742E-1	5,372875536E0
1,019066681E0	-6,149554253E-1	-5,357530117E0	1,722832322E-1	5,395459261E0
1,020262671E0	-6,436693072E-1	-5,364708424E0	1,746760458E-1	5,406007618E0
1,021458660E0	-6,556333899E-1	-5,367101192E0	1,818545163E-1	5,410055584E0
1,022654650E0	-6,675975323E-1	-5,374279499E0	1,794617027E-1	5,418558212E0
1,023850640E0	-6,843472719E-1	-5,388636589E0	1,770688742E-1	5,434803480E0
1,025046681E0	-6,939185858E-1	-5,398207664E0	1,722832322E-1	5,445351275E0
1,026242671E0	-7,034898400E-1	-5,419743061E0	1,794617027E-1	5,468155018E0
1,027438660E0	-7,202396393E-1	-5,438885689E0	1,866401732E-1	5,489540712E0
1,028634650E0	-7,369893789E-1	-5,453242779E0	1,842473447E-1	5,505902036E0
1,029830640E0	-7,465606928E-1	-5,462814331E0	1,794617027E-1	5,516511560E0
1,031026629E0	-7,489534616E-1	-5,474778175E0	1,722832322E-1	5,528454474E0
1,032222619E0	-7,728816867E-1	-5,489135265E0	1,722832322E-1	5,545956507E0
1,033418608E0	-7,968099117E-1	-5,505885124E0	1,722832322E-1	5,565910397E0
1,034614598E0	-7,920243144E-1	-5,525027275E0	1,698904037E-1	5,584092733E0
1,035810588E0	-7,968099117E-1	-5,539384365E0	1,722832322E-1	5,599050517E0
1,037006577E0	-8,135597110E-1	-5,553741455E0	1,722832322E-1	5,615657136E0
1,038202567E0	-8,374879360E-1	-5,565705299E0	1,746760458E-1	5,631072122E0
1,039398556E0	-8,638089895E-1	-5,577669621E0	1,746760458E-1	5,646864270E0
1,040594546E0	-8,853443861E-1	-5,582455158E0	1,794617027E-1	5,655072659E0
1,041790535E0	-8,973084688E-1	-5,594419479E0	1,866401732E-1	5,668996944E0
1,042986577E0	-8,997012973E-1	-5,615954876E0	1,866401732E-1	5,690627922E0
1,044182567E0	-9,092726111E-1	-5,637490273E0	1,914258152E-1	5,713555556E0
1,045378556E0	-9,212366939E-1	-5,656632900E0	1,818545163E-1	5,734042543E0
1,046574546E0	-9,403793216E-1	-5,663811207E0	1,746760458E-1	5,744004037E0
1,047770535E0	-9,523434043E-1	-5,663811207E0	1,746760458E-1	5,745974858E0
1,048966525E0	-9,619147182E-1	-5,668596745E0	1,770688742E-1	5,752357983E0
1,050162515E0	-9,714859724E-1	-5,685346603E0	1,842473447E-1	5,770693033E0
1,051358504E0	-9,834501147E-1	-5,704489231E0	2,081755698E-1	5,792383670E0
1,052554494E0	-1,004985452E0	-5,740381718E0	2,751746178E-1	5,834183670E0
1,053750483E0	-1,031306505E0	-5,804987907E0	3,804588020E-1	5,908149170E0
1,054946473E0	-1,060020447E0	-5,869594097E0	4,785645306E-1	5,983711409E0
1,056142463E0	-1,091127157E0	-5,903093338E0	5,312066078E-1	6,026545436E0
1,057338452E0	-1,103091240E0	-5,929414749E0	5,599204898E-1	6,057085149E0
1,058534494E0	-1,081555843E0	-5,986842155E0	6,364908218E-1	6,116956972E0
1,059730483E0	-1,038485050E0	-6,068198204E0	8,446664214E-1	6,214092211E0
1,060926473E0	-9,738788009E-1	-6,163911343E0	1,191625714E0	6,353126380E0
1,062122463E0	-9,212366939E-1	-6,259624004E0	1,574477315E0	6,520011391E0
1,063318452E0	-9,164510965E-1	-6,352943897E0	1,933400750E0	6,703567501E0
1,064514442E0	-1,019342422E0	-6,441478729E0	2,266003132E0	6,904091351E0
1,065710431E0	-1,225125194E0	-6,489335060E0	2,579462767E0	7,089853978E0
1,066906421E0	-1,438086390E0	-6,518048763E0	2,969492912E0	7,305541753E0
1,068102410E0	-1,593619823E0	-6,575476646E0	3,510270834E0	7,622238424E0
1,069298400E0	-1,670190215E0	-6,678368092E0	4,218546391E0	8,073801420E0
1,070494390E0	-1,665404558E0	-6,798008919E0	4,984249592E0	8,592394404E0
1,071690379E0	-1,627119422E0	-6,876972198E0	5,694917679E0	9,075921529E0
1,072886369E0	-1,624726534E0	-6,922435760E0	6,355337143E0	9,536779507E0
1,074082358E0	-1,682154298E0	-6,946363926E0	6,946363926E0	9,966623634E0
1,075278400E0	-1,799402595E0	-6,939185619E0	7,467999458E0	1,035186759E1
1,076474390E0	-1,969292998E0	-6,912864685E0	7,901100159E0	1,068144170E1
1,077670379E0	-2,141576290E0	-6,869793892E0	8,243273735E0	1,094221088E1
1,078866369E0	-2,333002090E0	-6,821937561E0	8,523234367E0	1,116365778E1
1,080062358E0	-2,644068956E0	-6,771687984E0	8,683553696E0	1,132479420E1
1,081258348E0	-3,043670416E0	-6,754938126E0	8,724231720E0	1,144575632E1
1,082454338E0	-3,330809116E0	-6,783652306E0	8,776873589E0	1,158213011E1
1,083650327E0	-3,436093330E0	-6,848258495E0	8,879764557E0	1,172840997E1
1,084846317E0	-3,452843189E0	-6,979863644E0	9,023334503E0	1,191894241E1
1,086042306E0	-3,522234917E0	-7,156932354E0	9,274580956E0	1,223297476E1
1,087238296E0	-3,732803345E0	-7,293323517E0	9,542576790E0	1,257724773E1
1,088434285E0	-4,010370731E0	-7,410571575E0	9,757930756E0	1,289251167E1
1,089630327E0	-4,232903481E0	-7,568498135E0	9,949356079E0	1,319808025E1
1,090826317E0	-4,364508629E0	-7,793423176E0	1,003549862E1	1,343494000E1
1,092022306E0	-4,474578381E0	-8,078168869E0	9,966106415E0	1,358682969E1
1,093218296E0	-4,615755081E0	-8,391629219E0	9,765109062E0	1,367779189E1
1,094414285E0	-4,790431023E0	-8,726624489E0	9,430113792E0	1,371237581E1
1,095610275E0	-4,936393261E0	-9,109476089E0	8,975478172E0	1,370801742E1
1,096806265E0	-4,962714195E0	-9,571290970E0	8,465806961E0	1,370795501E1
1,098002254E0	-4,907679081E0	-1,009771156E1	7,960920811E0	1,376318833E1
1,099198244E0	-4,833501816E0	-1,068634605E1	7,429714203E0	1,388385339E1
1,100394233E0	-4,761716843E0	-1,130608654E1	6,865008354E0	1,405808948E1
1,101590223E0	-4,697110653E0	-1,193300629E1	6,247660160E0	1,426508833E1
1,102786213E0	-4,615755081E0	-1,259103298E1	5,577669621E0	1,452410771E1
1,103982202E0	-4,541577339E0	-1,331127262E1	4,838287354E0	1,487363197E1
1,105178192E0	-4,498506546E0	-1,407219028E1	4,060619831E0	1,532161003E1
1,106374181E0	-4,465006828E0	-1,485225010E1	3,354737282E0	1,586757326E1
1,107570223E0	-4,445864677E0	-1,565384579E1	2,756531715E0	1,650475894E1
1,108766213E0	-4,412364960E0	-1,650090408E1	2,232503414E0	1,722593602E1
1,109962202E0	-4,287938118E0	-1,747239113E1	1,648654819E0	1,806623723E1
1,111158192E0	-4,074976921E0	-1,857069588E1	1,004985452E0	1,903906978E1
1,112354181E0	-3,883551121E0	-1,970250130E1	4,426721931E-1	2,008647518E1
1,113550171E0	-3,756731510E0	-2,083430672E1	-9,571290575E-3	2,117029664E1
1,114746160E0	-3,670589924E0	-2,196850395E1	-3,852444589E-1	2,227637335E1
1,115942150E0	-3,608376503E0	-2,313859558E1	-7,298108935E-1	2,342963103E1
1,117138140E0	-3,503092289E0	-2,438525581E1	-1,093519926E0	2,465984879E1
1,118334129E0	-3,330809116E0	-2,569891548E1	-1,464407444E0	2,595521211E1
1,119530119E0	-3,134597778E0	-2,702214622E1	-1,758724689E0	2,726013944E1
1,120726108E0	-2,964707375E0	-2,834059143E1	-1,942971945E0	2,856140319E1
1,121922098E0	-2,804388046E0	-2,967100143E1	-2,096112728E0	2,987685738E1
1,123118088E0	-2,639283419E0	-3,101337433E1	-2,210968018E0	3,120390334E1
1,124314129E0	-2,467000246E0	-3,235096359E1	-2,256431818E0	3,252325968E1
1,125510119E0	-2,256431818E0	-3,364308548E1	-2,220539331E0	3,379170727E1
1,126706108E0	-1,990828395E0	-3,486103439E1	-2,103291035E0	3,498112276E1
1,127902098E0	-1,689332843E0	-3,599523163E1	-1,950150490E0	3,608758280E1
1,129098088E0	-1,373480201E0	-3,701696777E1	-1,761117458E0	3,708428084E1
1,130294077E0	-1,048056364E0	-3,790230942E1	-1,540977836E0	3,794809737E1
1,131490067E0	-7,178468108E-1	-3,862015915E1	-1,292124271E0	3,864843570E1
1,132686056E0	-4,019941986E-1	-3,912504196E1	-1,024128079E0	3,914050774E1
1,133882046E0	-1,411765367E-1	-3,938586044E1	-7,585247755E-1	3,939341688E1
1,135078035E0	4,307080805E-2	-3,940021896E1	-4,953143001E-1	3,940335577E1
1,136274025E0	1,531406492E-1	-3,917290115E1	-2,512463629E-1	3,917400620E1
1,137470015E0	1,746760458E-1	-3,867997742E1	-5,264209956E-2	3,868040765E1
1,138666004E0	1,268195957E-1	-3,794777298E1	7,896314561E-2	3,794806705E1
1,139861994E0	3,589234129E-2	-3,702175140E1	1,172483116E-1	3,702195447E1
1,141057983E0	-7,657032460E-2	-3,591865921E1	7,417750359E-2	3,591881742E1
1,142254025E0	-1,818545163E-1	-3,467439270E1	-3,828516230E-2	3,467489071E1
1,143450015E0	-2,679961324E-1	-3,332962799E1	-1,962114573E-1	3,333128295E1
1,144646004E0	-3,349951804E-1	-3,191546822E1	-3,756731451E-1	3,191943708E1
1,145841994E0	-3,661018610E-1	-3,044866753E1	-5,670989752E-1	3,045614857E1
1,147037983E0	-3,565305769E-1	-2,895793915E1	-7,585247755E-1	2,897006582E1
1,148233973E0	-3,278166950E-1	-2,745763969E1	-9,427721500E-1	2,747577589E1
1,149429963E0	-2,775674164E-1	-2,595494652E1	-1,110269666E0	2,598016534E1
1,150625952E0	-1,986042857E-1	-2,448575401E1	-1,249053478E0	2,451839570E1
1,151821942E0	-1,196411327E-1	-2,306202507E1	-1,354337573E0	2,310206797E1
1,153017931E0	-4,067798331E-2	-2,169093704E1	-1,421336651E0	2,173749301E1
1,154213921E0	4,067798331E-2	-2,038206291E1	-1,454836130E0	2,043395927E1
1,155409910E0	1,220339537E-1	-1,912822342E1	-1,457229018E0	1,918403867E1
1,156605900E0	2,009970993E-1	-1,793420601E1	-1,454836130E0	1,799424056E1
1,157801942E0	2,679961324E-1	-1,680479431E1	-1,438086390E0	1,686834391E1
1,158997931E0	3,014956415E-1	-1,573759460E1	-1,409372568E0	1,580345262E1
1,160193921E0	3,206382394E-1	-1,474457359E1	-1,359123230E0	1,481055284E1
1,161389910E0	3,445664644E-1	-1,381855106E1	-1,284945726E0	1,388244089E1
1,162585900E0	3,565305769E-1	-1,295234871E1	-1,217946768E0	1,301437073E1
1,163781890E0	3,613162339E-1	-1,214118195E1	-1,146162033E0	1,220051375E1
1,164977879E0	3,637090325E-1	-1,138504982E1	-1,071984529E0	1,144118851E1
1,166173869E0	3,756731451E-1	-1,070070267E1	-1,004985452E0	1,075435557E1
1,167369858E0	3,876372576E-1	-1,006899738E1	-9,403793216E-1	1,012024131E1
1,168565848E0	3,828516304E-1	-9,473184586E0	-8,757730722E-1	9,521280378E0
1,169761838E0	3,613162339E-1	-8,920442581E0	-8,063812256E-1	8,964100398E0
1,170957827E0	3,421736360E-1	-8,425128937E0	-7,417750359E-1	8,464638835E0
1,172153817E0	3,158525825E-1	-7,965706348E0	-6,915257573E-1	8,001902796E0
1,173349806E0	2,895315289E-1	-7,534998417E0	-6,484549642E-1	7,568389755E0
1,174545796E0	2,679961324E-1	-7,152146816E0	-6,077769399E-1	7,182925505E0
1,175741838E0	2,512463629E-1	-6,802794933E0	-5,670989752E-1	6,831013460E0
1,176937827E0	2,512463629E-1	-6,486942291E0	-5,288137794E-1	6,513308609E0
1,178133817E0	2,321037948E-1	-6,197410583E0	-4,881358147E-1	6,220936158E0
1,179329806E0	2,081755698E-1	-5,924628735E0	-4,474578202E-1	5,945147703E0
1,180525796E0	2,009970993E-1	-5,670989513E0	-4,115654826E-1	5,689455865E0
1,181721785E0	1,890329868E-1	-5,450850010E0	-3,732803464E-1	5,466885541E0
1,182917775E0	1,579262912E-1	-5,261816978E0	-3,326023519E-1	5,274683209E0
1,184113765E0	1,339980662E-1	-5,096712112E0	-2,991028428E-1	5,107239210E0
1,185309754E0	1,148554832E-1	-4,931607246E0	-2,727817893E-1	4,940480920E0
1,186505744E0	9,571290761E-2	-4,780859470E0	-2,416750938E-1	4,787920748E0
1,187701733E0	6,221338734E-2	-4,651647091E0	-2,129612118E-1	4,656935005E0
1,188897723E0	2,392822690E-2	-4,524827480E0	-1,914258152E-1	4,528938080E0
1,190093713E0	-4,785645287E-3	-4,409972191E0	-1,890329868E-1	4,414024365E0
1,191289754E0	-5,024927482E-2	-4,309473515E0	-1,962114573E-1	4,314230626E0
1,192485744E0	-9,810572863E-2	-4,208974838E0	-1,986042857E-1	4,214799827E0
1,193681733E0	-1,292124242E-1	-4,113262177E0	-2,033899277E-1	4,120314193E0
1,194877723E0	-1,603191197E-1	-4,024727821E0	-2,081755698E-1	4,033295591E0
1,196073713E0	-2,033899277E-1	-3,960121393E0	-2,129612118E-1	3,971055450E0
1,197269702E0	-2,416750938E-1	-3,907479286E0	-2,129612118E-1	3,920733822E0
1,198465692E0	-2,847459018E-1	-3,859622955E0	-2,057827413E-1	3,875579456E0
1,199661681E0	-3,254238665E-1	-3,830909014E0	-1,938186288E-1	3,849588319E0
1,200857671E0	-3,565305769E-1	-3,795016766E0	-1,866401732E-1	3,816294126E0
1,202053660E0	-3,780659735E-1	-3,749552965E0	-1,866401732E-1	3,773183785E0
1,203249650E0	-3,948157430E-1	-3,713660717E0	-1,722832322E-1	3,738560807E0
1,204445640E0	-4,163511395E-1	-3,689732552E0	-1,555334777E-1	3,716404881E0
1,205641629E0	-4,259224236E-1	-3,668197155E0	-1,507478207E-1	3,695917367E0
1,206837619E0	-4,283152521E-1	-3,653840065E0	-1,411765367E-1	3,681566513E0
1,208033608E0	-4,331009090E-1	-3,661018610E0	-1,316052526E-1	3,688895987E0
1,209229650E0	-4,354937077E-1	-3,663411379E0	-1,244267747E-1	3,691303255E0
1,210425640E0	-4,474578202E-1	-3,670589924E0	-1,124626622E-1	3,699472495E0
1,211621629E0	-4,642075896E-1	-3,680161238E0	-1,052841991E-1	3,710816647E0
1,212817619E0	-4,642075896E-1	-3,684946775E0	-1,004985496E-1	3,715430175E0
1,214013608E0	-4,713860750E-1	-3,694518089E0	-9,332008660E-2	3,725637849E0
1,215209598E0	-4,905286431E-1	-3,708875179E0	-8,374879509E-2	3,742110007E0
1,216405588E0	-5,024927258E-1	-3,718446493E0	-8,135596663E-2	3,753126970E0
1,217601577E0	-5,048855543E-1	-3,728017569E0	-8,374879509E-2	3,762982630E0
1,218797567E0	-5,072783828E-1	-3,732803345E0	-7,896314561E-2	3,767942057E0
1,219993556E0	-5,168496966E-1	-3,737588882E0	-7,417750359E-2	3,773884811E0
1,221189546E0	-5,192425251E-1	-3,749552965E0	-6,221338734E-2	3,785846107E0
1,222385535E0	-5,240281820E-1	-3,763910055E0	-4,067798331E-2	3,800431441E0
1,223581525E0	-5,359922647E-1	-3,785445452E0	-3,589234129E-2	3,823371972E0
1,224777567E0	-5,455635786E-1	-3,804588079E0	-3,828516230E-2	3,843695595E0
1,225973556E0	-5,575276613E-1	-3,816552162E0	-4,307080805E-2	3,857299910E0
1,227169546E0	-5,694918036E-1	-3,828516245E0	-4,546362907E-2	3,870907451E0
1,228365535E0	-5,742774606E-1	-3,842873096E0	-4,067798331E-2	3,885758991E0
1,229561525E0	-5,886343718E-1	-3,852444410E0	-3,349951655E-2	3,897299139E0
1,230757515E0	-5,958128572E-1	-3,864408493E0	-4,067798331E-2	3,910281404E0
1,231953504E0	-6,005984545E-1	-3,878765583E0	-5,024927482E-2	3,925310936E0
1,233149494E0	-6,077769399E-1	-3,895515203E0	-5,024927482E-2	3,942962909E0
1,234345483E0	-6,125625968E-1	-3,907479286E0	-4,546362907E-2	3,955463847E0
1,235541473E0	-6,101697683E-1	-3,914657831E0	-5,264209956E-2	3,962275138E0
1,236737463E0	-6,029912829E-1	-3,917050600E0	-6,939185411E-2	3,963798572E0
1,237933452E0	-6,053841114E-1	-3,921836376E0	-7,657032460E-2	3,969024250E0
1,239129442E0	-6,101697683E-1	-3,940979004E0	-8,135596663E-2	3,988764401E0
1,240325431E0	-6,077769399E-1	-3,957728624E0	-8,614161611E-2	4,005050443E0
1,241521421E0	-6,005984545E-1	-3,972085476E0	-9,810572863E-2	4,018433310E0
1,242717463E0	-5,910272002E-1	-3,988835335E0	-1,148554832E-1	4,034019368E0
1,243913452E0	-5,910272002E-1	-4,003192425E0	-1,292124242E-1	4,048648984E0
1,245109442E0	-5,934200287E-1	-4,019941807E0	-1,459621787E-1	4,066126464E0
1,246305431E0	-6,029912829E-1	-4,031906128E0	-1,651047617E-1	4,080088859E0
1,247501421E0	-6,173482537E-1	-4,036691666E0	-1,890329868E-1	4,087998525E0
1,248697410E0	-6,101697683E-1	-4,034298897E0	-2,105683982E-1	4,085610577E0
1,249893400E0	-6,005984545E-1	-4,043870449E0	-2,273181528E-1	4,094542741E0
1,251089390E0	-6,005984545E-1	-4,051048756E0	-2,153540403E-1	4,100986697E0
1,252285379E0	-5,886343718E-1	-4,067798615E0	-2,057827413E-1	4,115315605E0
1,253481369E0	-5,694918036E-1	-4,101297855E0	-2,105683982E-1	4,145998560E0
1,254677358E0	-5,455635786E-1	-4,113262177E0	-2,129612118E-1	4,154746422E0
1,255873348E0	-5,359922647E-1	-4,110869408E0	-2,129612118E-1	4,151130867E0
1,257069390E0	-5,312066078E-1	-4,113262177E0	-2,057827413E-1	4,152523658E0
1,258265327E0	-5,096712112E-1	-4,110869408E0	-2,009970993E-1	4,147217364E0
1,259461369E0	-4,737788737E-1	-4,110869408E0	-2,033899277E-1	4,143076293E0
1,260657358E0	-4,426721931E-1	-4,130012035E0	-2,153540403E-1	4,159246981E0
1,261853348E0	-4,115654826E-1	-4,153940201E0	-2,201396823E-1	4,180079762E0
1,263049338E0	-3,684946895E-1	-4,170690060E0	-2,249253243E-1	4,192974518E0
1,264245327E0	-3,182454109E-1	-4,182653904E0	-2,201396823E-1	4,200516076E0
1,265441317E0	-2,560320199E-1	-4,187439442E0	-1,962114573E-1	4,199845284E0
1,266637306E0	-1,746760458E-1	-4,194618225E0	-1,746760458E-1	4,201885945E0
1,267833296E0	-8,374879509E-2	-4,218546391E0	-1,531406492E-1	4,222155796E0
1,269029285E0	9,571290575E-3	-4,244867325E0	-1,387837082E-1	4,247146234E0
1,270225275E0	1,052841991E-1	-4,252045631E0	-1,100698411E-1	4,254772871E0
1,271421265E0	2,081755698E-1	-4,264009953E0	-7,178468257E-2	4,269692142E0
1,272617254E0	3,206382394E-1	-4,259224415E0	-3,349951655E-2	4,271407697E0
1,273813244E0	4,283152521E-1	-4,240081787E0	1,914258115E-2	4,261703175E0
1,275009233E0	5,288137794E-1	-4,220939159E0	8,374879509E-2	4,254760306E0
1,276205223E0	6,269195080E-1	-4,206582069E0	1,579262912E-1	4,255972449E0
1,277401265E0	7,250252366E-1	-4,189832687E0	2,344966233E-1	4,258561753E0
1,278597254E0	8,063812256E-1	-4,161118507E0	3,062812984E-1	4,249584232E0
1,279793244E0	8,709874153E-1	-4,130012035E0	3,780659735E-1	4,237753222E0
1,280989233E0	9,403793216E-1	-4,103690624E0	4,546363056E-1	4,234534706E0
1,282185223E0	1,012163997E0	-4,077369690E0	5,575276613E-1	4,237954299E0
1,283381213E0	1,124626637E0	-4,005585194E0	7,489534616E-1	4,227343031E0
1,284577202E0	1,296909928E0	-3,873979807E0	1,076770186E0	4,224822948E0
1,285773192E0	1,469193101E0	-3,725624800E0	1,354337573E0	4,227651686E0
1,286969181E0	1,629512191E0	-3,534198999E0	1,615155339E0	4,213620690E0
1,288165171E0	1,818545222E0	-3,273381472E0	2,093719721E0	4,290197577E0
1,289361160E0	2,045863390E0	-2,931207657E0	2,830709219E0	4,559654594E0
1,290557150E0	2,323430777E0	-2,471785784E0	3,720839262E0	5,035146507E0
1,291753140E0	2,632104874E0	-1,923829436E0	4,606183529E0	5,643228018E0
1,292949181E0	2,885744095E0	-1,402194023E0	5,213960648E0	6,122013778E0
1,294145119E0	3,069991350E0	-9,188438654E-1	5,544169903E0	6,403666204E0
1,295341160E0	3,223132133E0	-4,019941986E-1	5,891129494E0	6,727227274E0
1,296537150E0	3,333201885E0	1,172483116E-1	6,233303070E0	7,069515481E0
1,297733140E0	3,395415306E0	5,958128572E-1	6,506084919E0	7,362946356E0
1,298929129E0	3,438486099E0	1,060020447E0	6,723831654E0	7,626056786E0
1,300125119E0	3,503092289E0	1,560120344E0	6,884150982E0	7,880175494E0
1,301321108E0	3,574877024E0	2,103291035E0	6,975078106E0	8,115127448E0
1,302517098E0	3,598805189E0	2,667997360E0	6,932007313E0	8,253625512E0
1,303713088E0	3,577269793E0	3,285345554E0	6,618547440E0	8,209477742E0
1,304909077E0	3,553341627E0	3,933800459E0	6,360122681E0	8,279624586E0
1,306105067E0	3,471985579E0	4,527220249E0	6,240481377E0	8,455413346E0
1,307301056E0	3,342773199E0	5,096712112E0	5,948556900E0	8,516803168E0
1,308497046E0	3,249453068E0	5,740381718E0	5,613562107E0	8,661582248E0
1,309693035E0	3,192025423E0	6,448657036E0	5,379065514E0	8,983793724E0
1,310889025E0	3,134597778E0	7,195217609E0	5,223531723E0	9,427732672E0
1,312085067E0	3,079562664E0	8,013563156E0	4,991427898E0	9,930521292E0
1,313281056E0	3,038884640E0	8,903693199E0	4,632504463E0	1,048669014E1
1,314477046E0	2,983849764E0	9,815358162E0	4,182653904E0	1,107877290E1
1,315673035E0	2,924029350E0	1,071266651E1	3,663411379E0	1,169323541E1
1,316869025E0	2,857030153E0	1,160758305E1	3,127419233E0	1,235634883E1
1,318065015E0	2,768495798E0	1,251206970E1	2,565105915E0	1,306890300E1
1,319261004E0	2,641676188E0	1,336391449E1	1,947757602E0	1,376104732E1
1,320456994E0	2,443071842E0	1,411047554E1	1,253839016E0	1,437519503E1
1,321652983E0	2,151147604E0	1,475653744E1	3,637090325E-1	1,491694062E1
1,322848973E0	1,804188251E0	1,532363605E1	-8,374879360E-1	1,545219412E1
1,324044963E0	1,390229940E0	1,583809280E1	-2,335394859E0	1,606959838E1
1,325240952E0	9,188438654E-1	1,624965858E1	-4,106083870E0	1,678557723E1
1,326436942E0	4,115654826E-1	1,647697639E1	-6,068198204E0	1,756368887E1
1,327632983E0	-1,148554832E-1	1,650569153E1	-8,202595711E0	1,843186428E1
1,328828973E0	-6,532405615E-1	1,637647820E1	-1,055234814E1	1,949276308E1
1,330024963E0	-1,196411371E0	1,614437485E1	-1,306481171E1	2,080292153E1
1,331220952E0	-1,732403636E0	1,581895065E1	-1,572084522E1	2,236929585E1
1,332416942E0	-2,258824587E0	1,540499210E1	-1,852284050E1	2,419734883E1
1,333612931E0	-2,751745939E0	1,493121338E1	-2,132244301E1	2,617555758E1
1,334808921E0	-3,180061340E0	1,440239906E1	-2,402154732E1	2,818823557E1
1,336004910E0	-3,546163082E0	1,385204983E1	-2,656511688E1	3,016885798E1
1,337200900E0	-3,852444410E0	1,330409431E1	-2,896990395E1	3,211067717E1
1,338396890E0	-4,110869408E0	1,278724384E1	-3,124308586E1	3,400798828E1
1,339592879E0	-4,354937077E0	1,227517986E1	-3,334159088E1	3,579535166E1
1,340788869E0	-4,591826439E0	1,174875927E1	-3,528216934E1	3,746931662E1
1,341984858E0	-4,795216560E0	1,123908806E1	-3,704089355E1	3,900434588E1
1,343180900E0	-4,972285271E0	1,076291656E1	-3,861776352E1	4,039672825E1
1,344376890E0	-5,156532764E0	1,034417248E1	-4,000799561E1	4,164410459E1
1,345572879E0	-5,333601475E0	9,963713646E0	-4,119244003E1	4,271463461E1
1,346768869E0	-5,501099110E0	9,643074989E0	-4,218067932E1	4,361720641E1
1,347964858E0	-5,670989513E0	9,389435768E0	-4,297988129E1	4,435754526E1
1,349160848E0	-5,831308842E0	9,152546883E0	-4,350869370E1	4,484171835E1
1,350356838E0	-5,958128452E0	8,932407379E0	-4,376712036E1	4,506493117E1
1,351552827E0	-6,104090691E0	8,750552177E0	-4,388915253E1	4,516735321E1
1,352748817E0	-6,283552170E0	8,602197647E0	-4,387479782E1	4,514951513E1
1,353944806E0	-6,458228111E0	8,461020470E0	-4,378626251E1	4,506145096E1
1,355140796E0	-6,611369133E0	8,350951195E0	-4,357808685E1	4,486087651E1
1,356336785E0	-6,754938126E0	8,291130066E0	-4,319523621E1	4,449944334E1
1,357532775E0	-6,879364967E0	8,233702660E0	-4,266641998E1	4,399480556E1
1,358728765E0	-6,955935478E0	8,137989998E0	-4,194857407E1	4,329312631E1
1,359924754E0	-7,006184578E0	8,020741463E0	-4,104169464E1	4,240093885E1
1,361120744E0	-7,003791809E0	7,877171993E0	-3,994338989E1	4,131074115E1
1,362316785E0	-6,934400082E0	7,697710514E0	-3,867279816E1	4,003655791E1
1,363512775E0	-6,821937561E0	7,487142086E0	-3,725864029E1	3,861091044E1
1,364708765E0	-6,656832695E0	7,243073940E0	-3,573680496E1	3,706608653E1
1,365904754E0	-6,410371780E0	6,967899323E0	-3,404986572E1	3,534172949E1
1,367100744E0	-6,118447304E0	6,664011002E0	-3,220500183E1	3,345155576E1
1,368296733E0	-5,809773445E0	6,345765591E0	-3,027399254E1	3,147279512E1
1,369492723E0	-5,460421085E0	6,005984783E0	-2,829751968E1	2,943871043E1
1,370688713E0	-5,070391178E0	5,649454117E0	-2,633779907E1	2,740994087E1
1,371884702E0	-4,670789719E0	5,297709465E0	-2,442354012E1	2,542422691E1
1,373080692E0	-4,268795490E0	4,955535889E0	-2,257867432E1	2,350694546E1
1,374276681E0	-3,876372576E0	4,618147850E0	-2,081516457E1	2,167082439E1
1,375472671E0	-3,498306751E0	4,280759811E0	-1,916172409E1	1,994328771E1
1,376668660E0	-3,132204771E0	3,964907169E0	-1,764706612E1	1,835620163E1
1,377864650E0	-2,792423964E0	3,658625841E0	-1,625205231E1	1,689119234E1
1,379060692E0	-2,464607239E0	3,361915827E0	-1,495035553E1	1,552062812E1
1,380256681E0	-2,170290232E0	3,096312523E0	-1,375155163E1	1,426192424E1
1,381452671E0	-1,909472466E0	2,866601467E0	-1,266521072E1	1,312520673E1
1,382648660E0	-1,674975872E0	2,653640270E0	-1,169372463E1	1,210745831E1
1,383844650E0	-1,471585870E0	2,450250387E0	-1,081316566E1	1,118453591E1
1,385040640E0	-1,294517040E0	2,273181438E0	-1,001635551E1	1,035231887E1
1,386236629E0	-1,127019525E0	2,105684042E0	-9,288937569E0	9,591060392E0
1,387432619E0	-9,762716293E-1	1,954936147E0	-8,597412109E0	8,870759641E0
1,388628608E0	-8,494520187E-1	1,808973908E0	-7,972885132E0	8,219540903E0
1,389824598E0	-7,537391186E-1	1,672582984E0	-7,432106972E0	7,655185859E0
1,391020588E0	-6,604190469E-1	1,557727575E0	-6,934400082E0	7,137826911E0
1,392216577E0	-5,718846321E-1	1,462014675E0	-6,455835342E0	6,643970869E0
1,393412567E0	-5,048855543E-1	1,368694544E0	-6,010770321E0	6,185272349E0
1,394608556E0	-4,426721931E-1	1,280160069E0	-5,606383324E0	5,767694725E0
1,395804546E0	-3,780659735E-1	1,208375454E0	-5,237888813E0	5,388746082E0
1,397000588E0	-3,182454109E-1	1,146162033E0	-4,890929699E0	5,033503836E0
1,398196577E0	-2,679961324E-1	1,086341500E0	-4,572684288E0	4,707589763E0
1,399392567E0	-2,321037948E-1	1,040877819E0	-4,299902439E0	4,430176045E0
1,400588556E0	-2,009970993E-1	1,000199914E0	-4,063013077E0	4,189137735E0
1,401784546E0	-1,627119333E-1	9,595218897E-1	-3,852444410E0	3,973472708E0
1,402980535E0	-1,268195957E-1	9,284151793E-1	-3,651447296E0	3,769761970E0
1,404176525E0	-9,332008660E-2	8,925228715E-1	-3,455235958E0	3,569868519E0
1,405372515E0	-6,221338734E-2	8,685946465E-1	-3,282952785E0	3,396484382E0
1,406568504E0	-3,828516230E-2	8,614161611E-1	-3,113062143E0	3,230272351E0
1,407764494E0	-1,914258115E-2	8,542376757E-1	-2,957528830E0	3,078484241E0
1,408960483E0	-7,178467698E-3	8,398807645E-1	-2,825923443E0	2,948100157E0
1,410156473E0	1,435693540E-2	8,327022791E-1	-2,706282377E0	2,831530242E0
1,411352463E0	4,546362907E-2	8,398807645E-1	-2,605783939E0	2,738170298E0
1,412548452E0	7,178468257E-2	8,470591903E-1	-2,517249346E0	2,656916743E0
1,413744442E0	9,571290761E-2	8,494520187E-1	-2,428714991E0	2,574759445E0
1,414940483E0	1,172483116E-1	8,494520187E-1	-2,340180635E0	2,492340528E0
1,416136473E0	1,339980662E-1	8,494520187E-1	-2,261217356E0	2,419220565E0
1,417332463E0	1,483550072E-1	8,518448472E-1	-2,215753794E0	2,378489799E0
1,418528452E0	1,674975902E-1	8,757730722E-1	-2,175075769E0	2,350742121E0
1,419724442E0	1,866401732E-1	9,044869542E-1	-2,129612207E0	2,321245217E0
1,420920431E0	2,057827413E-1	9,260223508E-1	-2,098505497E0	2,302952290E0
1,422116421E0	2,273181528E-1	9,475577474E-1	-2,076970100E0	2,294197905E0
1,423312410E0	2,464607358E-1	9,690931439E-1	-2,057827473E0	2,287911345E0
1,424508400E0	2,656033039E-1	9,906286001E-1	-2,057827473E0	2,299248583E0
1,425704390E0	2,967100143E-1	1,021735311E0	-2,076970100E0	2,333620508E0
1,426900379E0	3,326023519E-1	1,043270707E0	-2,100898266E0	2,369137315E0
1,428096369E0	3,565305769E-1	1,062413216E0	-2,134397745E0	2,410703140E0
1,429292358E0	3,828516304E-1	1,091127157E0	-2,184647083E0	2,471804346E0
1,430488348E0	4,235295951E-1	1,117448211E0	-2,254039049E0	2,551227128E0
1,431684338E0	4,713860750E-1	1,146162033E0	-2,335394859E0	2,643853511E0
1,432880379E0	5,144568682E-1	1,184447169E0	-2,431107759E0	2,752792383E0
1,434076369E0	5,599204898E-1	1,227517962E0	-2,555534601E0	2,889821517E0
1,435272358E0	6,053841114E-1	1,256231904E0	-2,694318295E0	3,033802827E0
1,436468348E0	6,436693072E-1	1,275374413E0	-2,837887764E0	3,177183821E0
1,437664338E0	7,082754970E-1	1,287338614E0	-2,998206854E0	3,338882931E0
1,438860327E0	7,704889178E-1	1,292124271E0	-3,180061340E0	3,517957992E0
1,440056317E0	8,207381964E-1	1,299302697E0	-3,369094372E0	3,703052197E0
1,441252306E0	8,662018180E-1	1,313659668E0	-3,574877024E0	3,905861371E0
1,442448296E0	9,188438654E-1	1,332802176E0	-3,804588079E0	4,134673644E0
1,443644285E0	9,643075466E-1	1,354337573E0	-4,063013077E0	4,390010771E0
1,444840275E0	9,858429432E-1	1,366301775E0	-4,335794449E0	4,651642758E0
1,446036265E0	9,954141974E-1	1,371087432E0	-4,618147850E0	4,919148273E0
1,447232254E0	1,009771109E0	1,366301775E0	-4,905286312E0	5,191170584E0
1,448428244E0	1,016949654E0	1,356730461E0	-5,194818020E0	5,464525451E0
1,449624233E0	1,012163997E0	1,344766378E0	-5,486742496E0	5,739095381E0
1,450820275E0	1,009771109E0	1,332802176E0	-5,788238049E0	6,024923156E0
1,452016265E0	1,000199914E0	1,316052437E0	-6,084948063E0	6,305472767E0
1,453212254E0	9,810572863E-1	1,292124271E0	-6,384050846E0	6,586969238E0
1,454408244E0	9,690931439E-1	1,246660590E0	-6,683153629E0	6,867157096E0
1,455604233E0	9,619147182E-1	1,191625714E0	-6,979863644E0	7,145890305E0
1,456800223E0	9,523434043E-1	1,143769264E0	-7,269395351E0	7,420193721E0
1,457996213E0	9,427721500E-1	1,086341500E0	-7,563712597E0	7,699266551E0
1,459192202E0	9,260223508E-1	1,014556766E0	-7,858029366E0	7,977184236E0
1,460388192E0	9,116654396E-1	9,355936646E-1	-8,142775536E0	8,246894131E0
1,461584181E0	8,901300430E-1	8,566305041E-1	-8,429914474E0	8,519953366E0
1,462780171E0	8,638089895E-1	7,728816867E-1	-8,717052460E0	8,793777098E0
1,463976160E0	8,518448472E-1	6,747759581E-1	-8,992227554E0	9,057655250E0
1,465172150E0	8,470591903E-1	5,647061467E-1	-9,257830620E0	9,313636781E0
1,466368140E0	8,422735929E-1	4,618147612E-1	-9,521040916E0	9,569373951E0
1,467564181E0	8,207381964E-1	3,684946895E-1	-9,784252167E0	9,825527466E0
1,468760171E0	7,944171429E-1	2,799602449E-1	-1,002831936E1	1,006363083E1
1,469956160E0	7,800601721E-1	1,890329868E-1	-1,025324535E1	1,028461315E1
1,471152150E0	7,609176040E-1	9,092725813E-2	-1,048774147E1	1,051570181E1
1,472348140E0	7,417750359E-1	-7,178467698E-3	-1,071506023E1	1,074070750E1
1,473544129E0	7,274180651E-1	-1,052841991E-1	-1,093280697E1	1,095748557E1
1,474740119E0	7,082754970E-1	-2,081755698E-1	-1,114337540E1	1,116780222E1
1,475936108E0	6,819544435E-1	-2,991028428E-1	-1,134676456E1	1,137117366E1
1,477132098E0	6,556333899E-1	-3,828516304E-1	-1,155733299E1	1,158224401E1
1,478328088E0	6,317051649E-1	-4,666004181E-1	-1,176072311E1	1,178691544E1
1,479524077E0	6,053841114E-1	-5,527420044E-1	-1,195454216E1	1,198261624E1
1,480720067E0	5,838487148E-1	-6,245267391E-1	-1,214357471E1	1,217363215E1
1,481916056E0	5,647061467E-1	-6,795616150E-1	-1,232303619E1	1,235467191E1
1,483112046E0	5,240281820E-1	-7,393822074E-1	-1,248574829E1	1,251859425E1
1,484308035E0	4,809573591E-1	-7,920243144E-1	-1,263410378E1	1,266803855E1
1,485504025E0	4,474578202E-1	-8,446664214E-1	-1,278245831E1	1,281814808E1
1,486700067E0	4,019941986E-1	-8,877372146E-1	-1,293320656E1	1,296986926E1
1,487896056E0	3,541377485E-1	-9,236295223E-1	-1,306959724E1	1,310697819E1
1,489092046E0	3,086741269E-1	-9,523434043E-1	-1,319641685E1	1,323433623E1
1,490288035E0	2,656033039E-1	-9,738788009E-1	-1,331605816E1	1,335426486E1
1,491484025E0	2,273181528E-1	-9,978070259E-1	-1,342134190E1	1,346030129E1
1,492680015E0	1,914258152E-1	-1,016949654E0	-1,350987625E1	1,354944968E1
1,493876004E0	1,459621787E-1	-1,021735311E0	-1,358166122E1	1,362082118E1
1,495071994E0	1,028913707E-1	-1,026520967E0	-1,364387512E1	1,368282355E1
1,496267983E0	6,460621208E-2	-1,033699393E0	-1,370130253E1	1,374039298E1
1,497463973E0	2,392822690E-2	-1,016949654E0	-1,374676609E1	1,378435117E1
1,498659963E0	-2,632104978E-2	-9,858429432E-1	-1,377548027E1	1,381073625E1
1,499855952E0	-6,699903309E-2	-9,547362328E-1	-1,378983688E1	1,382301022E1
1,501051942E0	-1,004985496E-1	-9,236295223E-1	-1,379222965E1	1,382348691E1
1,502247931E0	-1,363908947E-1	-8,853443861E-1	-1,376590824E1	1,379502326E1
1,503443921E0	-1,698904037E-1	-8,279166222E-1	-1,372523022E1	1,375122733E1
1,504639910E0	-1,962114573E-1	-7,633104324E-1	-1,366062450E1	1,368334037E1
1,505835952E0	-2,153540403E-1	-6,843472719E-1	-1,357926846E1	1,359820725E1
1,507031942E0	-2,416750938E-1	-5,790630579E-1	-1,347877026E1	1,349336757E1
1,508227931E0	-2,703889608E-1	-4,881358147E-1	-1,334716511E1	1,335882492E1
1,509423921E0	-2,751746178E-1	-3,948157430E-1	-1,318684578E1	1,319562436E1
1,510619910E0	-2,799602449E-1	-2,967100143E-1	-1,301456261E1	1,302095444E1
1,511815900E0	-2,895315289E-1	-1,986042857E-1	-1,283031464E1	1,283511768E1
1,513011890E0	-2,751746178E-1	-8,853443712E-2	-1,262453270E1	1,262784167E1
1,514207879E0	-2,584248483E-1	1,674975827E-2	-1,240199947E1	1,240470293E1
1,515403869E0	-2,416750938E-1	1,196411327E-1	-1,217468166E1	1,217766786E1
1,516599858E0	-2,201396823E-1	2,057827413E-1	-1,195693493E1	1,196073162E1
1,517795848E0	-1,890329868E-1	2,823530734E-1	-1,173440266E1	1,173932121E1
1,518991838E0	-1,507478207E-1	3,661018610E-1	-1,151186943E1	1,151867585E1
1,520187827E0	-1,052841991E-1	4,354937077E-1	-1,130130100E1	1,131017877E1
1,521383869E0	-5,024927482E-2	5,000999570E-1	-1,109312534E1	1,110450606E1
1,522579858E0	4,785645287E-3	5,479564071E-1	-1,089930725E1	1,091307370E1
1,523775848E0	5,982056633E-2	5,766702294E-1	-1,072463131E1	1,074029067E1
1,524971838E0	1,196411327E-1	5,982056856E-1	-1,055952644E1	1,057713396E1
1,526167827E0	1,866401732E-1	6,197410822E-1	-1,039681435E1	1,041694111E1
1,527363817E0	2,488535494E-1	6,269195080E-1	-1,023888779E1	1,026108080E1
1,528559806E0	3,014956415E-1	6,197410822E-1	-1,009771156E1	1,012120336E1
1,529755796E0	3,517449200E-1	6,221339107E-1	-9,973284721E0	9,998859096E0
1,530951785E0	4,019941986E-1	6,077769399E-1	-9,856036186E0	9,882936884E0
1,532147775E0	4,378865361E-1	5,766702294E-1	-9,745966911E0	9,772827851E0
1,533343765E0	4,785645306E-1	5,527420044E-1	-9,643074989E0	9,670751935E0
1,534539754E0	5,264210105E-1	5,312066078E-1	-9,552147865E0	9,581379253E0
1,535735744E0	5,647061467E-1	4,929214716E-1	-9,468399048E0	9,498023223E0
1,536931733E0	5,862415433E-1	4,474578202E-1	-9,399007797E0	9,427897179E0
1,538127723E0	6,053841114E-1	4,091726840E-1	-9,346364975E0	9,374884023E0
1,539323713E0	6,197410822E-1	3,732803464E-1	-9,288937569E0	9,317069195E0
1,540519754E0	6,221339107E-1	3,326023519E-1	-9,231510162E0	9,258426152E0
1,541715744E0	6,293123364E-1	2,967100143E-1	-9,186046600E0	9,212357081E0
1,542911733E0	6,221339107E-1	2,608176768E-1	-9,150154114E0	9,174987562E0
1,544107723E0	6,149554253E-1	2,225325108E-1	-9,121439934E0	9,144854146E0
1,545303713E0	6,293123364E-1	1,770688742E-1	-9,099904060E0	9,123356910E0
1,546499702E0	6,364908218E-1	1,316052526E-1	-9,083154678E0	9,106379051E0
1,547695692E0	6,340979934E-1	1,052841991E-1	-9,073583603E0	9,096322577E0
1,548891681E0	6,221339107E-1	8,374879509E-2	-9,080761909E0	9,102433813E0
1,550087671E0	6,077769399E-1	6,460621208E-2	-9,092725754E0	9,113244669E0
1,551283660E0	6,005984545E-1	5,264209956E-2	-9,114261627E0	9,134180571E0
1,552479650E0	5,814558864E-1	3,349951655E-2	-9,142974854E0	9,161506554E0
1,553675640E0	5,479564071E-1	1,914258115E-2	-9,174081802E0	9,190451544E0
1,554871629E0	5,216353536E-1	4,785645287E-3	-9,214759827E0	9,229513801E0
1,556067619E0	4,977070987E-1	-7,178467698E-3	-9,253045082E0	9,266423645E0
1,557263608E0	4,737788737E-1	0,000000000E0	-9,288937569E0	9,301012180E0
1,558459650E0	4,354937077E-1	7,178467698E-3	-9,336793900E0	9,346947449E0
1,559655640E0	4,043870270E-1	9,571290575E-3	-9,384650230E0	9,393363637E0
1,560851629E0	3,804588020E-1	2,632104978E-2	-9,430113792E0	9,437822198E0
1,562047619E0	3,541377485E-1	3,828516230E-2	-9,487542152E0	9,494226424E0
1,563243608E0	3,182454109E-1	3,349951655E-2	-9,542576790E0	9,547940833E0
1,564439598E0	2,751746178E-1	2,871387079E-2	-9,597611427E0	9,601598339E0
1,565635588E0	2,344966233E-1	3,589234129E-2	-9,652647018E0	9,655561682E0
1,566831577E0	2,081755698E-1	4,785645381E-2	-9,693324089E0	9,695677346E0
1,568027567E0	1,842473447E-1	5,982056633E-2	-9,731609344E0	9,733537179E0
1,569223556E0	1,435693651E-1	7,417750359E-2	-9,767501831E0	9,768838543E0
1,570419546E0	1,100698411E-1	7,896314561E-2	-9,796216011E0	9,797152580E0
1,571615535E0	9,571290761E-2	8,135596663E-2	-9,817750931E0	9,818554532E0
1,572811525E0	7,417750359E-2	8,614161611E-2	-9,832108498E0	9,832765643E0
1,574007567E0	5,503492057E-2	9,571290761E-2	-9,851250648E0	9,851869322E0
1,575203504E0	4,785645381E-2	9,810572863E-2	-9,865608215E0	9,866212061E0
1,576399546E0	4,067798331E-2	9,810572863E-2	-9,870393753E0	9,870965114E0
1,577595535E0	3,589234129E-2	1,028913707E-1	-9,863214493E0	9,863816453E0
1,578791525E0	3,828516230E-2	1,148554832E-1	-9,853643417E0	9,854387152E0
1,579987515E0	4,307080805E-2	1,244267747E-1	-9,844072342E0	9,844952889E0
1,581183504E0	5,024927482E-2	1,268195957E-1	-9,841679573E0	9,842624905E0
1,582379494E0	5,982056633E-2	1,220339537E-1	-9,836894035E0	9,837832843E0
1,583575483E0	6,699903309E-2	1,196411327E-1	-9,824930191E0	9,825887040E0
1,584771473E0	8,853443712E-2	1,220339537E-1	-9,812965393E0	9,814123519E0
1,585967463E0	1,124626622E-1	1,268195957E-1	-9,793823242E0	9,795289927E0
1,587163452E0	1,244267747E-1	1,363908947E-1	-9,769894600E0	9,771638808E0
1,588359442E0	1,483550072E-1	1,411765367E-1	-9,743574142E0	9,745726094E0
1,589555431E0	1,770688742E-1	1,339980662E-1	-9,722038269E0	9,724573871E0
1,590751421E0	1,986042857E-1	1,220339537E-1	-9,700503349E0	9,703303622E0
1,591947410E0	2,033899277E-1	1,172483116E-1	-9,669396400E0	9,672245932E0
1,593143452E0	2,153540403E-1	1,124626622E-1	-9,643074989E0	9,646135001E0
1,594339390E0	2,392822653E-1	1,052841991E-1	-9,616754532E0	9,620307089E0
1,595535431E0	2,632105052E-1	9,332008660E-2	-9,592825890E0	9,596889963E0
1,596731421E0	2,823530734E-1	7,896314561E-2	-9,566504478E0	9,570996101E0
1,597927410E0	2,943171859E-1	6,939185411E-2	-9,540184021E0	9,544975065E0
1,599123400E0	3,038884699E-1	6,460621208E-2	-9,528220177E0	9,533283899E0
1,600319390E0	3,110669553E-1	4,785645381E-2	-9,513862610E0	9,519066900E0
1,601515379E0	3,158525825E-1	1,914258115E-2	-9,497113228E0	9,502383330E0
1,602711369E0	3,134597540E-1	-2,392822644E-3	-9,489934921E0	9,495110718E0
1,603907358E0	3,206382394E-1	-1,196411345E-2	-9,473184586E0	9,478616893E0
1,605103348E0	3,230310678E-1	-1,914258115E-2	-9,458827972E0	9,464361686E0
1,606299338E0	3,206382394E-1	-1,914258115E-2	-9,456435204E0	9,461888928E0
1,607495327E0	3,134597540E-1	-2,632104978E-2	-9,444471359E0	9,449708412E0
1,608691317E0	2,943171859E-1	-3,349951655E-2	-9,434899330E0	9,439548199E0
1,609887306E0	2,847459018E-1	-3,349951655E-2	-9,434899330E0	9,439254622E0
1,611083296E0	2,775674164E-1	-3,828516230E-2	-9,444471359E0	9,448626815E0
1,612279285E0	2,656033039E-1	-4,785645381E-2	-9,458827972E0	9,462677315E0
1,613475327E0	2,536391914E-1	-5,024927482E-2	-9,466006279E0	9,469537090E0
1,614671317E0	2,440679073E-1	-5,264209956E-2	-9,463613510E0	9,466906623E0
1,615867306E0	2,273181528E-1	-5,503492057E-2	-9,470791817E0	9,473679329E0
1,617063296E0	2,129612118E-1	-5,982056633E-2	-9,489934921E0	9,492512617E0
1,618259285E0	2,129612118E-1	-5,982056633E-2	-9,518648148E0	9,521218070E0
1,619455275E0	2,081755698E-1	-5,503492057E-2	-9,552147865E0	9,554574546E0
1,620651265E0	1,890329868E-1	-4,785645381E-2	-9,580862045E0	9,582846197E0
1,621847254E0	1,842473447E-1	-3,349951655E-2	-9,602396965E0	9,604222862E0
1,623043244E0	1,986042857E-1	-2,392822690E-2	-9,623932838E0	9,626011609E0
1,624239233E0	2,105683982E-1	-2,153540403E-2	-9,662218094E0	9,664536270E0
1,625435223E0	2,081755698E-1	-1,674975827E-2	-9,702896118E0	9,705143518E0
1,626631213E0	2,273181528E-1	-1,196411345E-2	-9,724431038E0	9,727094926E0
1,627827202E0	2,464607358E-1	-1,196411345E-2	-9,750752449E0	9,753874069E0
1,629023192E0	2,536391914E-1	-7,178467698E-3	-9,791430473E0	9,794717713E0
1,630219181E0	2,560320199E-1	-2,392822644E-3	-9,824930191E0	9,828265940E0
1,631415223E0	2,488535494E-1	9,571290575E-3	-9,853643417E0	9,856789959E0
1,632611213E0	2,464607358E-1	1,914258115E-2	-9,887143135E0	9,890232996E0
1,633807202E0	2,464607358E-1	2,392822690E-2	-9,918250084E0	9,921340644E0
1,635003192E0	2,679961324E-1	3,589234129E-2	-9,949356079E0	9,953029517E0
1,636199181E0	2,943171859E-1	4,307080805E-2	-9,980463028E0	9,984894589E0
1,637395171E0	3,038884699E-1	4,785645381E-2	-1,001396275E1	1,001868696E1
1,638591160E0	3,086741269E-1	5,982056633E-2	-1,005224800E1	1,005716402E1
1,639787150E0	3,230310678E-1	6,460621208E-2	-1,007856941E1	1,008395183E1
1,640983140E0	3,349951804E-1	6,460621208E-2	-1,010488987E1	1,011064761E1
1,642179129E0	3,469592929E-1	6,939185411E-2	-1,013360405E1	1,013977944E1
1,643375119E0	3,637090325E-1	6,699903309E-2	-1,016949654E1	1,017621899E1
1,644571108E0	3,661018610E-1	6,699903309E-2	-1,019820976E1	1,020499886E1
1,645767098E0	3,661018610E-1	6,939185411E-2	-1,021735287E1	1,022414522E1
1,646963088E0	3,661018610E-1	7,417750359E-2	-1,023410225E1	1,024091704E1
1,648159077E0	3,661018610E-1	8,135596663E-2	-1,024845982E1	1,025531950E1
1,649355119E0	3,661018610E-1	8,614161611E-2	-1,026760197E1	1,027448788E1
1,650551108E0	3,708875179E-1	8,374879509E-2	-1,029392338E1	1,030094316E1
1,651747098E0	3,684946895E-1	8,374879509E-2	-1,031545830E1	1,032237773E1
1,652943088E0	3,589234054E-1	9,092725813E-2	-1,032981491E1	1,033644861E1
1,654139077E0	3,565305769E-1	9,810572863E-2	-1,034656525E1	1,035317107E1
1,655335067E0	3,517449200E-1	1,052841991E-1	-1,036570740E1	1,037220801E1
1,656531056E0	3,469592929E-1	1,028913707E-1	-1,037527943E1	1,038158902E1
1,657727046E0	3,445664644E-1	1,004985496E-1	-1,039202881E1	1,039822527E1
1,658923035E0	3,517449200E-1	1,052841991E-1	-1,041595650E1	1,042242577E1
1,660119025E0	3,541377485E-1	1,100698411E-1	-1,043031406E1	1,043690473E1
1,661315015E0	3,469592929E-1	1,244267747E-1	-1,043270683E1	1,043921619E1
1,662511004E0	3,302095234E-1	1,316052526E-1	-1,042792130E1	1,043397819E1
1,663706994E0	3,182454109E-1	1,339980662E-1	-1,042552853E1	1,043124540E1
1,664902983E0	3,182454109E-1	1,411765367E-1	-1,042552853E1	1,043134009E1
1,666098973E0	3,206382394E-1	1,507478207E-1	-1,042074299E1	1,042676451E1
1,667295015E0	3,158525825E-1	1,651047617E-1	-1,041356373E1	1,041966084E1
1,668491004E0	2,943171859E-1	1,818545163E-1	-1,040638542E1	1,041213481E1
1,669686994E0	2,727817893E-1	1,914258152E-1	-1,039920712E1	1,040454527E1
1,670882983E0	2,775674164E-1	2,009970993E-1	-1,039442158E1	1,040006940E1
1,672078973E0	2,943171859E-1	2,201396823E-1	-1,038485050E1	1,039135237E1
1,673274963E0	2,943171859E-1	2,321037948E-1	-1,037527943E1	1,038204787E1
1,674470952E0	2,799602449E-1	2,392822653E-1	-1,036570740E1	1,037224776E1
1,675666942E0	2,727817893E-1	2,392822653E-1	-1,035374355E1	1,036009997E1
1,676862931E0	2,799602449E-1	2,321037948E-1	-1,032742214E1	1,033382301E1
1,678058921E0	2,919243574E-1	2,368894368E-1	-1,029631615E1	1,030317731E1
1,679254910E0	2,799602449E-1	2,464607358E-1	-1,027238750E1	1,027915686E1
1,680450900E0	2,727817893E-1	2,440679073E-1	-1,024845982E1	1,025499428E1
1,681646890E0	2,823530734E-1	2,344966233E-1	-1,021974564E1	1,022633428E1
1,682842879E0	2,919243574E-1	2,225325108E-1	-1,019103146E1	1,019764005E1
1,684038869E0	2,919243574E-1	2,129612118E-1	-1,016231823E1	1,016874054E1
1,685234858E0	2,871387303E-1	2,057827413E-1	-1,013121128E1	1,013736836E1
1,686430900E0	2,871387303E-1	1,962114573E-1	-1,010010433E1	1,010609000E1
1,687626890E0	2,823530734E-1	1,794617027E-1	-1,007378292E1	1,007933689E1
1,688822879E0	2,775674164E-1	1,722832322E-1	-1,004985523E1	1,005516362E1
1,690018869E0	2,823530734E-1	1,674975902E-1	-1,002831936E1	1,003369164E1
1,691214858E0	2,871387303E-1	1,651047617E-1	-1,000439167E1	1,000987317E1
1,692410848E0	2,847459018E-1	1,746760458E-1	-9,980463028E0	9,986051983E0
1,693606838E0	2,895315289E-1	1,938186288E-1	-9,954142570E0	9,960238375E0
1,694802827E0	3,014956415E-1	1,986042857E-1	-9,937392235E0	9,943948296E0
1,695998817E0	3,014956415E-1	1,890329868E-1	-9,920642853E0	9,927023104E0
1,697194806E0	2,943171859E-1	1,818545163E-1	-9,894321442E0	9,900368198E0
1,698390796E0	2,895315289E-1	1,842473447E-1	-9,868000984E0	9,873966731E0
1,699586785E0	2,991028428E-1	1,794617027E-1	-9,848857880E0	9,855032752E0
1,700782775E0	3,038884699E-1	1,818545163E-1	-9,829715729E0	9,836093258E0
1,701978765E0	2,871387303E-1	2,009970993E-1	-9,805787086E0	9,812049168E0
1,703174754E0	2,775674164E-1	2,201396823E-1	-9,786644936E0	9,793054899E0
1,704370796E0	2,727817893E-1	2,249253243E-1	-9,777072906E0	9,783463391E0
1,705566785E0	2,679961324E-1	2,201396823E-1	-9,772287369E0	9,778439744E0
1,706762775E0	2,679961324E-1	2,201396823E-1	-9,760323524E0	9,766483436E0
1,707958765E0	2,656033039E-1	2,177468538E-1	-9,743574142E0	9,749625422E0
1,709154754E0	2,656033039E-1	2,105683982E-1	-9,734002113E0	9,739901504E0
1,710350744E0	2,703889608E-1	1,962114573E-1	-9,719645500E0	9,725385225E0
1,711546733E0	2,703889608E-1	1,842473447E-1	-9,710074425E0	9,715585551E0
1,712742723E0	2,656033039E-1	1,938186288E-1	-9,705288887E0	9,710856973E0
1,713938713E0	2,584248483E-1	1,962114573E-1	-9,695717812E0	9,701145614E0
1,715134702E0	2,656033039E-1	1,794617027E-1	-9,686145782E0	9,691448382E0
1,716330692E0	2,679961324E-1	1,579262912E-1	-9,686145782E0	9,691139394E0
1,717526681E0	2,560320199E-1	1,555334777E-1	-9,688538551E0	9,693168848E0
1,718722671E0	2,440679073E-1	1,627119333E-1	-9,683753014E0	9,688194710E0
1,719918660E0	2,368894368E-1	1,627119333E-1	-9,671789169E0	9,676057953E0
1,721114650E0	2,368894368E-1	1,579262912E-1	-9,671789169E0	9,675978661E0
1,722310692E0	2,321037948E-1	1,555334777E-1	-9,676574707E0	9,680607465E0
1,723506681E0	2,297109663E-1	1,459621787E-1	-9,669396400E0	9,673225875E0
1,724702671E0	2,297109663E-1	1,339980662E-1	-9,662218094E0	9,665877151E0
1,725898660E0	2,273181528E-1	1,292124242E-1	-9,657432556E0	9,660971637E0
1,727094650E0	2,273181528E-1	1,268195957E-1	-9,652647018E0	9,656156130E0
1,728290640E0	2,225325108E-1	1,124626622E-1	-9,650253296E0	9,653473843E0
1,729486629E0	2,249253243E-1	1,028913707E-1	-9,647860527E0	9,651030556E0
1,730682619E0	2,321037948E-1	1,028913707E-1	-9,645467758E0	9,648808583E0
1,731878608E0	2,297109663E-1	9,332008660E-2	-9,655039787E0	9,658222873E0
1,733074598E0	2,368894368E-1	7,896314561E-2	-9,669396400E0	9,672620045E0
1,734270588E0	2,536391914E-1	6,939185411E-2	-9,678967476E0	9,682538896E0
1,735466577E0	2,608176768E-1	6,939185411E-2	-9,678967476E0	9,682729599E0
1,736662567E0	2,656033039E-1	6,939185411E-2	-9,671789169E0	9,675684269E0
1,737858556E0	2,560320199E-1	6,939185411E-2	-9,674181938E0	9,677818132E0
1,739054546E0	2,536391914E-1	5,982056633E-2	-9,681360245E0	9,684866934E0
1,740250535E0	2,512463629E-1	4,546362907E-2	-9,683753014E0	9,687118462E0
1,741446577E0	2,488535494E-1	3,828516230E-2	-9,683753014E0	9,687025667E0
1,742642567E0	2,536391914E-1	3,828516230E-2	-9,695717812E0	9,699110396E0
1,743838556E0	2,584248483E-1	3,349951655E-2	-9,700503349E0	9,704002826E0
1,745034546E0	2,608176768E-1	2,632104978E-2	-9,700503349E0	9,704044718E0
1,746230535E0	2,584248483E-1	2,392822690E-2	-9,714859962E0	9,718325990E0
1,747426525E0	2,584248483E-1	1,196411345E-2	-9,729216576E0	9,732655430E0
1,748622515E0	2,656033039E-1	2,392822644E-3	-9,736394882E0	9,740017256E0
1,749818504E0	2,656033039E-1	-4,785645287E-3	-9,748359680E0	9,751978490E0
1,751014494E0	2,632105052E-1	-2,392822690E-2	-9,755537987E0	9,759117467E0
1,752210483E0	2,656033039E-1	-2,871387079E-2	-9,760323524E0	9,763978948E0
1,753406473E0	2,632105052E-1	-2,153540403E-2	-9,772287369E0	9,775855152E0
1,754602463E0	2,632105052E-1	-2,153540403E-2	-9,781859398E0	9,785423692E0
1,755798452E0	2,656033039E-1	-2,871387079E-2	-9,793823242E0	9,797466167E0
1,756994442E0	2,727817893E-1	-3,110669367E-2	-9,815358162E0	9,819197186E0
1,758190483E0	2,703889608E-1	-2,632104978E-2	-9,836894035E0	9,840644656E0
1,759386421E0	2,679961324E-1	-3,349951655E-2	-9,856036186E0	9,859735973E0
1,760582463E0	2,679961324E-1	-4,067798331E-2	-9,870393753E0	9,874115123E0
1,761778452E0	2,632105052E-1	-2,871387079E-2	-9,875179291E0	9,878728171E0
1,762974442E0	2,656033039E-1	-2,153540403E-2	-9,884750366E0	9,888341554E0
1,764170431E0	2,751746178E-1	-1,435693540E-2	-9,903892517E0	9,907724975E0
1,765366421E0	2,679961324E-1	-1,196411345E-2	-9,932606697E0	9,936228704E0
1,766562410E0	2,703889608E-1	-1,435693540E-2	-9,956535339E0	9,960216477E0
1,767758400E0	2,871387303E-1	-1,196411345E-2	-9,963713646E0	9,967857413E0
1,768954390E0	2,991028428E-1	-1,435693540E-2	-9,975677490E0	9,980170841E0
1,770150379E0	3,134597540E-1	-2,392822690E-2	-9,990034103E0	9,994979288E0
1,771346369E0	3,182454109E-1	-3,349951655E-2	-1,000917721E1	1,001429132E1
1,772542358E0	3,134597540E-1	-3,349951655E-2	-1,002353382E1	1,002848989E1
1,773738348E0	3,110669553E-1	-3,828516230E-2	-1,003071213E1	1,003560732E1
1,774934338E0	3,062812984E-1	-3,828516230E-2	-1,003789139E1	1,004263598E1
1,776130327E0	3,014956415E-1	-4,307080805E-2	-1,004985523E1	1,005446890E1
1,777326369E0	2,943171859E-1	-5,982056633E-2	-1,006660461E1	1,007108383E1
1,778522358E0	2,847459018E-1	-7,417750359E-2	-1,007378292E1	1,007807942E1
1,779718348E0	2,799602449E-1	-8,135596663E-2	-1,007378292E1	1,007800074E1
1,780914338E0	2,847459018E-1	-8,135596663E-2	-1,008096218E1	1,008531098E1
1,782110327E0	2,847459018E-1	-7,896314561E-2	-1,008574772E1	1,009007544E1
1,783306317E0	2,727817893E-1	-7,178468257E-2	-1,008574772E1	1,008969127E1
1,784502306E0	2,632105052E-1	-6,460621208E-2	-1,009053326E1	1,009417234E1
1,785698296E0	2,560320199E-1	-5,982056633E-2	-1,010010433E1	1,010352604E1
1,786894285E0	2,608176768E-1	-5,503492057E-2	-1,010249710E1	1,010601318E1
1,788090275E0	2,703889608E-1	-5,264209956E-2	-1,010010433E1	1,010386010E1
1,789286265E0	2,727817893E-1	-5,503492057E-2	-1,009771156E1	1,010154531E1
1,790482254E0	2,751746178E-1	-5,982056633E-2	-1,010010433E1	1,010402925E1
1,791678660E0	2,679961324E-1	-6,221338734E-2	-1,009531879E1	1,009906699E1
1,792874233E0	2,464607358E-1	-5,742774159E-2	-1,008814049E1	1,009131405E1
1,794070223E0	2,488535494E-1	-4,785645381E-2	-1,007378292E1	1,007696982E1
1,795266213E0	2,536391914E-1	-4,067798331E-2	-1,005942631E1	1,006270566E1
1,796462202E0	2,440679073E-1	-3,110669367E-2	-1,004506969E1	1,004808250E1
1,797658244E0	2,416750938E-1	-1,914258115E-2	-1,003071213E1	1,003364137E1
1,798854233E0	2,464607358E-1	-7,178467698E-3	-1,002114105E1	1,002417390E1
1,800050223E0	2,440679073E-1	7,178467698E-3	-1,001156998E1	1,001454712E1
1,801246213E0	2,416750938E-1	1,435693540E-2	-1,000199890E1	1,000492854E1
1,802442202E0	2,440679073E-1	2,153540403E-2	-1,000199890E1	1,000499950E1
1,803638192E0	2,440679073E-1	2,632104978E-2	-9,997213364E0	1,000022685E1
1,804834181E0	2,440679073E-1	2,153540403E-2	-9,992427826E0	9,995431295E0
1,806030171E0	2,440679073E-1	2,153540403E-2	-9,978070259E0	9,981078049E0
1,807226160E0	2,488535494E-1	3,349951655E-2	-9,954142570E0	9,957309105E0
1,808422150E0	2,464607358E-1	4,546362907E-2	-9,946963310E0	9,950120046E0
1,809618140E0	2,344966233E-1	5,024927482E-2	-9,944570541E0	9,947461832E0
1,810814129E0	2,273181528E-1	4,307080805E-2	-9,930213928E0	9,932908803E0
1,812010119E0	2,273181528E-1	4,067798331E-2	-9,915857315E0	9,918545989E0
1,813206108E0	2,392822653E-1	4,785645381E-2	-9,899106979E0	9,902114180E0
1,814402098E0	2,464607358E-1	4,785645381E-2	-9,887143135E0	9,890330253E0
1,815598088E0	2,440679073E-1	5,503492057E-2	-9,889535904E0	9,892700257E0
1,816794129E0	2,440679073E-1	6,460621208E-2	-9,894321442E0	9,897542114E0
1,817990119E0	2,392822653E-1	6,460621208E-2	-9,889535904E0	9,892641223E0
1,819186108E0	2,297109663E-1	5,982056633E-2	-9,884750366E0	9,887600084E0
1,820382098E0	2,344966233E-1	5,264209956E-2	-9,889535904E0	9,892455724E0
1,821578088E0	2,488535494E-1	4,785645381E-2	-9,891928673E0	9,895174137E0
1,822774077E0	2,560320199E-1	5,264209956E-2	-9,896714211E0	9,900165441E0
1,823970067E0	2,608176768E-1	6,221338734E-2	-9,903892517E0	9,907521555E0
1,825166056E0	2,632105052E-1	6,699903309E-2	-9,918250084E0	9,921968220E0
1,826362046E0	2,608176768E-1	6,939185411E-2	-9,927821159E0	9,931489015E0
1,827558035E0	2,632105052E-1	7,178468257E-2	-9,920642853E0	9,924393554E0
1,828754025E0	2,703889608E-1	7,896314561E-2	-9,913464546E0	9,917465638E0
1,829950015E0	2,799602449E-1	8,374879509E-2	-9,915857315E0	9,920162191E0
1,831146004E0	2,751746178E-1	9,092725813E-2	-9,927821159E0	9,932050232E0
1,832341994E0	2,727817893E-1	1,052841991E-1	-9,944570541E0	9,948868173E0
1,833538035E0	2,847459018E-1	1,220339537E-1	-9,961320877E0	9,966136971E0
1,834734025E0	2,943171859E-1	1,268195957E-1	-9,970891953E0	9,976040905E0
1,835930015E0	3,038884699E-1	1,316052526E-1	-9,973284721E0	9,978781302E0
1,837126004E0	2,967100143E-1	1,387837082E-1	-9,970891953E0	9,976271051E0
1,838321994E0	2,895315289E-1	1,387837082E-1	-9,973284721E0	9,978451661E0
1,839517983E0	2,895315289E-1	1,363908947E-1	-9,973284721E0	9,978418668E0
1,840713973E0	2,943171859E-1	1,435693651E-1	-9,966106415E0	9,971484937E0
1,841909963E0	3,062812984E-1	1,579262912E-1	-9,966106415E0	9,972062275E0
1,843105952E0	3,158525825E-1	1,555334777E-1	-9,968499184E0	9,974714507E0
1,844301942E0	3,134597540E-1	1,339980662E-1	-9,961320877E0	9,967152357E0
1,845497931E0	3,062812984E-1	1,316052526E-1	-9,961320877E0	9,966897300E0
1,846693921E0	2,991028428E-1	1,411765367E-1	-9,966106415E0	9,971593172E0
1,847889910E0	2,991028428E-1	1,411765367E-1	-9,961320877E0	9,966810269E0
1,849085900E0	3,110669553E-1	1,387837082E-1	-9,954142570E0	9,959968769E0
1,850281890E0	3,110669553E-1	1,339980662E-1	-9,954142570E0	9,959903235E0
1,851477879E0	3,134597540E-1	1,316052526E-1	-9,944570541E0	9,950379903E0
1,852673921E0	3,206382394E-1	1,244267747E-1	-9,927821159E0	9,933776919E0
1,853869910E0	3,230310678E-1	1,196411327E-1	-9,913464546E0	9,919447685E0
1,855065900E0	3,230310678E-1	1,244267747E-1	-9,906285286E0	9,912331676E0
1,856261890E0	3,373879790E-1	1,100698411E-1	-9,901499748E0	9,907857654E0
1,857457879E0	3,397808075E-1	1,028913707E-1	-9,896714211E0	9,903079814E0
1,858653869E0	3,373879790E-1	9,810572863E-2	-9,887143135E0	9,893384393E0
1,859849858E0	3,278166950E-1	1,124626622E-1	-9,865608215E0	9,871693730E0
1,861045848E0	2,967100143E-1	1,627119333E-1	-9,820143700E0	9,825972435E0
1,862241838E0	2,512463629E-1	2,009970993E-1	-9,757930756E0	9,763233952E0
1,863437827E0	2,201396823E-1	2,129612118E-1	-9,710074425E0	9,714903977E0
1,864633817E0	2,177468538E-1	2,129612118E-1	-9,674181938E0	9,678975273E0
1,865829806E0	2,344966233E-1	1,986042857E-1	-9,635896683E0	9,640795466E0
1,867025796E0	2,608176768E-1	1,674975902E-1	-9,592825890E0	9,597832560E0
1,868221785E0	2,991028428E-1	1,292124242E-1	-9,547362328E0	9,552920275E0
1,869417775E0	3,373879790E-1	9,810572863E-2	-9,509077072E0	9,515566307E0
1,870613765E0	3,732803464E-1	7,657032460E-2	-9,482755661E0	9,490408640E0
1,871809806E0	3,996013701E-1	5,024927482E-2	-9,470791817E0	9,479351448E0
1,873005796E0	4,163511395E-1	3,589234129E-2	-9,451649666E0	9,460883571E0
1,874201785E0	4,139583111E-1	6,460621208E-2	-9,418149948E0	9,427464340E0
1,875397775E0	3,876372576E-1	1,196411327E-1	-9,387042999E0	9,395805070E0
1,876593765E0	3,397808075E-1	1,794617027E-1	-9,348757744E0	9,356651583E0
1,877789754E0	3,014956415E-1	2,440679073E-1	-9,300901413E0	9,308986833E0
1,878985744E0	2,895315289E-1	2,895315289E-1	-9,250652313E0	9,259709781E0
1,880181733E0	2,775674164E-1	3,134597540E-1	-9,207581520E0	9,217095971E0
1,881377723E0	2,751746178E-1	3,206382394E-1	-9,178867340E0	9,188587247E0
1,882573713E0	2,799602449E-1	3,134597540E-1	-9,145368576E0	9,155020543E0
1,883769702E0	2,919243574E-1	2,823530734E-1	-9,114261627E0	9,123305766E0
1,884965692E0	2,991028428E-1	2,416750938E-1	-9,083154678E0	9,091290792E0
1,886161681E0	3,134597540E-1	2,057827413E-1	-9,025727272E0	9,033512957E0
1,887357671E0	3,326023519E-1	1,722832322E-1	-8,939585686E0	8,947429691E0
1,888553660E0	3,326023519E-1	1,507478207E-1	-8,834300995E0	8,841845017E0
1,889749702E0	3,254238665E-1	1,387837082E-1	-8,717052460E0	8,724228630E0
1,890945692E0	3,302095234E-1	1,411765367E-1	-8,599804878E0	8,607299988E0
1,892141681E0	3,302095234E-1	1,483550072E-1	-8,501698494E0	8,509402142E0
1,893337671E0	3,206382394E-1	1,507478207E-1	-8,415556908E0	8,423012042E0
1,894533660E0	3,110669553E-1	1,387837082E-1	-8,350951195E0	8,357895036E0
1,895729650E0	3,158525825E-1	1,172483116E-1	-8,319844246E0	8,326663095E0
1,896925640E0	3,445664644E-1	1,076770201E-1	-8,312665939E0	8,320500911E0
1,898121629E0	3,804588020E-1	1,148554832E-1	-8,367700577E0	8,377132781E0
1,899317619E0	4,019941986E-1	1,244267747E-1	-8,480163574E0	8,490598071E0
1,900513608E0	4,019941986E-1	1,292124242E-1	-8,568697929E0	8,579095488E0
1,901709598E0	3,780659735E-1	1,435693651E-1	-8,602197647E0	8,611698462E0
1,902905588E0	3,445664644E-1	1,603191197E-1	-8,597412109E0	8,605807530E0
1,904101577E0	3,278166950E-1	1,603191197E-1	-8,585447311E0	8,593199145E0
1,905297567E0	3,230310678E-1	1,722832322E-1	-8,592626572E0	8,600422198E0
1,906493556E0	3,182454109E-1	1,986042857E-1	-8,630910873E0	8,639059342E0
1,907689546E0	3,278166950E-1	2,368894368E-1	-8,705088615E0	8,714479227E0
1,908885535E0	3,517449200E-1	2,727817893E-1	-8,788837433E0	8,800102148E0
1,910081577E0	3,637090325E-1	3,014956415E-1	-8,879764557E0	8,892322670E0
1,911277567E0	3,972085714E-1	3,038884699E-1	-8,975478172E0	8,989401052E0
1,912473556E0	4,354937077E-1	2,871387303E-1	-9,068798065E0	9,083787853E0
1,913669546E0	4,522434771E-1	2,751746178E-1	-9,147761345E0	9,163066237E0
1,914865535E0	4,594219327E-1	2,703889608E-1	-9,231510162E0	9,246889130E0
1,916061525E0	4,498506486E-1	2,703889608E-1	-9,324830055E0	9,339589464E0
1,917257515E0	4,235295951E-1	2,727817893E-1	-9,408578873E0	9,422056231E0
1,918453504E0	3,924229145E-1	2,703889608E-1	-9,485149384E0	9,497113496E0
1,919649494E0	3,421736360E-1	2,656033039E-1	-9,552147865E0	9,561964064E0
1,920845483E0	2,895315289E-1	2,632105052E-1	-9,604789734E0	9,612756842E0
1,922041473E0	2,488535494E-1	2,512463629E-1	-9,652647018E0	9,659122490E0
1,923237463E0	2,057827413E-1	2,297109663E-1	-9,705288887E0	9,710187745E0
1,924433452E0	1,651047617E-1	2,009970993E-1	-9,765109062E0	9,768572793E0
1,925629442E0	1,220339537E-1	1,651047617E-1	-9,822537422E0	9,824682859E0
1,926825431E0	7,657032460E-2	1,196411327E-1	-9,858428955E0	9,859452240E0
1,928021473E0	2,632104978E-2	8,614161611E-2	-9,769894600E0	9,770309804E0
1,929217463E0	-1,674975827E-2	6,221338734E-2	-9,470791817E0	9,471010965E0
1,930413452E0	-4,785645287E-3	2,153540403E-2	-8,906085968E0	8,906113291E0
1,931609442E0	4,785645381E-2	-4,546362907E-2	-8,015955925E0	8,016227702E0
1,932805431E0	1,268195957E-1	-1,339980662E-1	-6,874579430E0	6,877054677E0
1,934001421E0	2,321037948E-1	-2,608176768E-1	-5,716453075E0	5,727105185E0
1,935197410E0	3,493520916E-1	-4,163511395E-1	-4,907679081E0	4,937682565E0
1,936393400E0	4,689932466E-1	-5,455635786E-1	-4,709074974E0	4,763715083E0
1,937589390E0	5,694918036E-1	-6,077769399E-1	-5,106283665E0	5,173765223E0
1,938785379E0	6,317051649E-1	-5,886343718E-1	-5,922235966E0	5,984849261E0
1,939981369E0	6,628118753E-1	-5,192425251E-1	-6,908079147E0	6,959201814E0
1,941177358E0	6,580262184E-1	-4,163511395E-1	-7,838887215E0	7,877467838E0
1,942373348E0	6,245267391E-1	-3,014956415E-1	-8,609375954E0	8,637261579E0
1,943569338E0	5,647061467E-1	-1,890329868E-1	-9,193224907E0	9,212492100E0
1,944765327E0	4,785645306E-1	-7,896314561E-2	-9,585647583E0	9,597911167E0
1,945961317E0	3,852444589E-1	3,349951655E-2	-9,801001549E0	9,808627165E0
1,947157358E0	2,679961324E-1	1,316052526E-1	-9,853643417E0	9,858165675E0
1,948353348E0	1,148554832E-1	2,177468538E-1	-9,779465675E0	9,782563793E0
1,949549338E0	-4,307080805E-2	2,847459018E-1	-9,633503914E0	9,637807478E0
1,950745327E0	-1,938186288E-1	3,230310678E-1	-9,485149384E0	9,492627327E0
1,951941317E0	-3,397808075E-1	3,469592929E-1	-9,401400566E0	9,413934584E0
1,953137306E0	-4,761717021E-1	3,565305769E-1	-9,401400566E0	9,420200961E0
1,954333296E0	-6,053841114E-1	3,613162339E-1	-9,477970123E0	9,504154723E0
1,955529285E0	-7,298108935E-1	3,517449200E-1	-9,631111145E0	9,665125468E0
1,956725275E0	-8,374879360E-1	3,349951804E-1	-9,827322960E0	9,868631332E0
1,957921265E0	-9,355936646E-1	3,086741269E-1	-1,004267693E1	1,009088574E1
1,959117254E0	-1,040877819E0	2,775674164E-1	-1,029153061E1	1,034775689E1
1,960313244E0	-1,153340459E0	2,512463629E-1	-1,059781170E1	1,066334524E1
1,961509233E0	-1,268195987E0	2,249253243E-1	-1,097348499E1	1,104881375E1
1,962705223E0	-1,390229940E0	1,962114573E-1	-1,139222908E1	1,147841982E1
1,963901213E0	-1,517049551E0	1,722832322E-1	-1,179183006E1	1,189026396E1
1,965097254E0	-1,643869162E0	1,603191197E-1	-1,215075302E1	1,226249595E1
1,966293244E0	-1,756331801E0	1,387837082E-1	-1,244507027E1	1,256915814E1
