"Time (s)"	"Acceleration x (m/s^2)"	"Acceleration y (m/s^2)"	"Acceleration z (m/s^2)"	"Absolute acceleration (m/s^2)"
3,790703300E-2	-3,828516304E-1	9,592825890E0	9,308080077E-1	9,645480157E0
3,910297100E-2	-3,804588020E-1	9,600004196E0	9,523434043E-1	9,654625183E0
4,029890800E-2	-3,852444589E-1	9,604789734E0	9,595218897E-1	9,660283711E0
4,149495000E-2	-4,043870270E-1	9,604789734E0	9,619147182E-1	9,661303982E0
4,269088700E-2	-4,211367965E-1	9,611968994E0	9,643075466E-1	9,669394665E0
4,388687700E-2	-4,259224236E-1	9,621540070E0	9,595218897E-1	9,678642750E0
4,508281400E-2	-4,378865361E-1	9,626325607E0	9,427721500E-1	9,682288399E0
4,627875200E-2	-4,546363056E-1	9,640682220E0	9,260223508E-1	9,695718913E0
4,747479400E-2	-4,570291340E-1	9,650253296E0	9,188438654E-1	9,704665803E0
4,867073100E-2	-4,474578202E-1	9,647860527E0	9,116654396E-1	9,701163081E0
4,986666900E-2	-4,474578202E-1	9,645467758E0	8,997012973E-1	9,697666173E0
5,106260600E-2	-4,498506486E-1	9,655039787E0	9,044869542E-1	9,707742042E0
5,225864800E-2	-4,498506486E-1	9,671789169E0	9,236295223E-1	9,726199815E0
5,345458500E-2	-4,474578202E-1	9,693324089E0	9,499505758E-1	9,750033666E0
5,465057500E-2	-4,474578202E-1	9,707681656E0	9,810572863E-1	9,767383223E0
5,584651200E-2	-4,546363056E-1	9,712467194E0	1,014556766E0	9,775890680E0
5,704245000E-2	-4,594219327E-1	9,734002113E0	1,043270707E0	9,800524446E0
5,823849200E-2	-4,546363056E-1	9,748359680E0	1,079162955E0	9,818442000E0
5,943442900E-2	-4,570291340E-1	9,745966911E0	1,107876897E0	9,819375636E0
6,063036700E-2	-4,642075896E-1	9,745966911E0	1,119840980E0	9,821069369E0
6,182630400E-2	-4,642075896E-1	9,753145218E0	1,136590719E0	9,830115401E0
6,302234600E-2	-4,666004181E-1	9,748359680E0	1,158126116E0	9,827995142E0
6,421828300E-2	-4,785645306E-1	9,731609344E0	1,179661512E0	9,814522185E0
6,541422100E-2	-4,809573591E-1	9,726823807E0	1,210768223E0	9,813683357E0
6,661015800E-2	-4,881358147E-1	9,724431038E0	1,237089276E0	9,814949081E0
6,780620000E-2	-5,000999570E-1	9,714859962E0	1,258624673E0	9,808809312E0
6,900218900E-2	-5,072783828E-1	9,695717812E0	1,282552958E0	9,793325142E0
7,019812700E-2	-5,168496966E-1	9,671789169E0	1,304088354E0	9,772987557E0
7,139406400E-2	-5,312066078E-1	9,657432556E0	1,330409408E0	9,763102644E0
7,259005400E-2	-5,407779217E-1	9,650253296E0	1,359123230E0	9,760483871E0
7,378604400E-2	-5,431707501E-1	9,650253296E0	1,385444283E0	9,764316617E0
7,498198100E-2	-5,383850932E-1	9,655039787E0	1,418943882E0	9,773589594E0
7,617791900E-2	-5,216353536E-1	9,650253296E0	1,454836130E0	9,773230801E0
7,737396000E-2	-5,048855543E-1	9,635896683E0	1,488335729E0	9,763224751E0
7,856989800E-2	-4,929214716E-1	9,638289452E0	1,519442320E0	9,769764587E0
7,976583500E-2	-4,857429862E-1	9,647860527E0	1,545763373E0	9,782972115E0
8,096177300E-2	-4,833501875E-1	9,647860527E0	1,569691658E0	9,786662968E0
8,215781400E-2	-4,809573591E-1	9,657432556E0	1,593619823E0	9,799844269E0
8,335375200E-2	-4,785645306E-1	9,657432556E0	1,617548108E0	9,803646743E0
8,454974200E-2	-4,809573591E-1	9,657432556E0	1,636690736E0	9,806940406E0
8,574567900E-2	-4,737788737E-1	9,662218094E0	1,651047587E0	9,813708934E0
8,694161700E-2	-4,642075896E-1	9,662218094E0	1,665404558E0	9,815677232E0
8,813765800E-2	-4,642075896E-1	9,662218094E0	1,674975872E0	9,817305707E0
8,933359600E-2	-4,594219327E-1	9,652647018E0	1,679761529E0	9,808479075E0
9,052958500E-2	-4,354937077E-1	9,628718376E0	1,682154298E0	9,784248332E0
9,172552300E-2	-4,043870270E-1	9,604789734E0	1,674975872E0	9,758127836E0
9,292146000E-2	-3,876372576E-1	9,597611427E0	1,670190215E0	9,749561175E0
9,411745000E-2	-3,852444589E-1	9,595218658E0	1,658226132E0	9,745067896E0
9,531343900E-2	-3,732803464E-1	9,592825890E0	1,634297848E0	9,738201899E0
9,650937700E-2	-3,589234054E-1	9,604789734E0	1,612762451E0	9,745861407E0
9,770531400E-2	-3,589234054E-1	9,619147301E0	1,588834286E0	9,756086059E0
9,890135600E-2	-3,565305769E-1	9,623932838E0	1,555334687E0	9,755319745E0
1,000972940E-1	-3,517449200E-1	9,626325607E0	1,524227977E0	9,752596583E0
1,012932310E-1	-3,541377485E-1	9,626325607E0	1,500299811E0	9,748972139E0
1,024891690E-1	-3,493520916E-1	9,640682220E0	1,478764415E0	9,759689788E0
1,036852100E-1	-3,349951804E-1	9,664610863E0	1,462014675E0	9,780307347E0
1,048811480E-1	-3,254238665E-1	9,674181938E0	1,440479279E0	9,786249405E0
1,060770850E-1	-3,302095234E-1	9,671789169E0	1,414158225E0	9,780203860E0
1,072730230E-1	-3,302095234E-1	9,676574707E0	1,392622828E0	9,781847205E0
1,084690640E-1	-3,134597540E-1	9,686145782E0	1,375872970E0	9,788396374E0
1,096650540E-1	-3,014956415E-1	9,698110580E0	1,356730461E0	9,797191740E0
1,108609920E-1	-2,847459018E-1	9,702896118E0	1,337587833E0	9,798796585E0
1,120569290E-1	-2,632105052E-1	9,705288887E0	1,323230863E0	9,798614803E0
1,132529190E-1	-2,536391914E-1	9,702896118E0	1,311266780E0	9,794383415E0
1,144489080E-1	-2,440679073E-1	9,698110580E0	1,296909928E0	9,787486569E0
1,156448460E-1	-2,297109663E-1	9,705288887E0	1,282552958E0	9,792361390E0
1,168407830E-1	-2,105683982E-1	9,702896118E0	1,277767301E0	9,788933619E0
1,180368250E-1	-1,890329868E-1	9,695717812E0	1,270588875E0	9,780443417E0
1,192327620E-1	-1,627119333E-1	9,693324089E0	1,265803218E0	9,776976263E0
1,204287000E-1	-1,435693651E-1	9,686145782E0	1,268195987E0	9,769869669E0
1,216246370E-1	-1,268195957E-1	9,688538551E0	1,272981644E0	9,772632436E0
1,228206790E-1	-1,172483116E-1	9,695717812E0	1,277767301E0	9,780254614E0
1,240166170E-1	-1,052841991E-1	9,700503349E0	1,268195987E0	9,783617483E0
1,252125540E-1	-8,614161611E-2	9,702896118E0	1,258624673E0	9,784566905E0
1,264084920E-1	-7,178468257E-2	9,710074425E0	1,258624673E0	9,791569560E0
1,276045330E-1	-5,742774159E-2	9,710074425E0	1,258624673E0	9,791474830E0
1,288005230E-1	-4,546362907E-2	9,717252731E0	1,261017561E0	9,798838343E0
1,299964600E-1	-3,349951655E-2	9,729216576E0	1,270588875E0	9,811889394E0
1,311923980E-1	-1,674975827E-2	9,734002113E0	1,268195987E0	9,816282329E0
1,323883350E-1	7,178467698E-3	9,738788605E0	1,258624673E0	9,819785694E0
1,335843770E-1	2,392822690E-2	9,736394882E0	1,249053478E0	9,816215791E0
1,347803140E-1	2,153540403E-2	9,731609344E0	1,244267821E0	9,810855550E0
1,359762520E-1	2,392822690E-2	9,724431038E0	1,232303619E0	9,802229531E0
1,371721890E-1	3,349951655E-2	9,710074425E0	1,205982566E0	9,784736149E0
1,383682310E-1	4,307080805E-2	9,700503349E0	1,184447169E0	9,772642192E0
1,395642210E-1	5,503492057E-2	9,686145782E0	1,182054400E0	9,758160768E0
1,407601580E-1	7,417750359E-2	9,669396400E0	1,189232826E0	9,742535798E0
1,419560960E-1	8,374879509E-2	9,664610863E0	1,184447169E0	9,737280528E0
1,431520850E-1	7,896314561E-2	9,662218094E0	1,174875975E0	9,733705729E0
1,443480750E-1	8,135596663E-2	9,652647018E0	1,172483087E0	9,723935923E0
1,455440120E-1	8,135596663E-2	9,645467758E0	1,179661512E0	9,717678136E0
1,467399500E-1	8,853443712E-2	9,635896683E0	1,184447169E0	9,708823735E0
1,479359920E-1	1,004985496E-1	9,633503914E0	1,189232826E0	9,707150577E0
1,491319290E-1	1,172483116E-1	9,643074989E0	1,198804140E0	9,718012852E0
1,503278670E-1	1,268195957E-1	9,643074989E0	1,217946768E0	9,720512990E0
1,515238040E-1	1,244267747E-1	9,633503914E0	1,239482164E0	9,713711737E0
1,527198460E-1	1,244267747E-1	9,631111145E0	1,251446247E0	9,712872985E0
1,539157830E-1	1,172483116E-1	9,631111145E0	1,261017561E0	9,714021533E0
1,551117210E-1	1,148554832E-1	9,623932838E0	1,277767301E0	9,709066090E0
1,563076580E-1	1,244267747E-1	9,614361763E0	1,289731383E0	9,701280388E0
1,575037000E-1	1,268195957E-1	9,597611427E0	1,299302697E0	9,685990699E0
1,586996370E-1	1,363908947E-1	9,573683739E0	1,320838094E0	9,665331659E0
1,598955750E-1	1,411765367E-1	9,561718941E0	1,359123230E0	9,658862038E0
1,610915120E-1	1,411765367E-1	9,559326172E0	1,397408366E0	9,661956211E0
1,622875540E-1	1,363908947E-1	9,549755096E0	1,421336651E0	9,655911285E0
1,634835440E-1	1,411765367E-1	9,525827408E0	1,450050473E0	9,636595093E0
1,646794810E-1	1,411765367E-1	9,501898766E0	1,483550072E0	9,618052390E0
1,658754190E-1	1,339980662E-1	9,482755661E0	1,517049551E0	9,604272474E0
1,670713560E-1	1,411765367E-1	9,466006279E0	1,536192179E0	9,590885887E0
1,682673980E-1	1,435693651E-1	9,449256897E0	1,557727575E0	9,577869453E0
1,694633870E-1	1,483550072E-1	9,434899330E0	1,581655741E0	9,567704503E0
1,706593250E-1	1,579262912E-1	9,415757179E0	1,586441398E0	9,549775928E0
1,718552620E-1	1,483550072E-1	9,408578873E0	1,586441398E0	9,542544835E0
1,730512000E-1	1,363908947E-1	9,410971642E0	1,596012712E0	9,546321087E0
1,742472420E-1	1,220339537E-1	9,413364410E0	1,600798368E0	9,549286739E0
1,754431790E-1	1,124626622E-1	9,418149948E0	1,598405480E0	9,553486085E0
1,766391170E-1	1,052841991E-1	9,432506561E0	1,600798368E0	9,567957996E0
1,778350540E-1	9,571290761E-2	9,444471359E0	1,596012712E0	9,578854670E0
1,790310960E-1	9,571290761E-2	9,456435204E0	1,588834286E0	9,589458906E0
1,802270850E-1	7,657032460E-2	9,475577354E0	1,572084427E0	9,605408823E0
1,814230230E-1	4,546362907E-2	9,504291534E0	1,548156261E0	9,629663147E0
1,826189600E-1	2,392822690E-2	9,530612946E0	1,524227977E0	9,651757695E0
1,838149500E-1	1,196411345E-2	9,559326172E0	1,500299811E0	9,676350527E0
1,850109390E-1	-7,178467698E-3	9,580862045E0	1,466800332E0	9,692495668E0
1,862068770E-1	-1,674975827E-2	9,595218658E0	1,438086390E0	9,702401462E0
1,874028140E-1	-1,674975827E-2	9,621540070E0	1,414158225E0	9,724924542E0
1,885988560E-1	-2,153540403E-2	9,647860527E0	1,390229940E0	9,747533832E0
1,897947940E-1	-2,632104978E-2	9,659825325E0	1,375872970E0	9,757353357E0
1,909907830E-1	-3,349951655E-2	9,667003632E0	1,354337573E0	9,761470775E0
1,921867210E-1	-4,307080805E-2	9,676574707E0	1,339980721E0	9,769007191E0
1,933827100E-1	-4,546362907E-2	9,688538551E0	1,337587833E0	9,780541264E0
1,945786480E-1	-5,503492057E-2	9,702896118E0	1,328016520E0	9,793510596E0
1,957745850E-1	-7,417750359E-2	9,714859962E0	1,316052437E0	9,803876805E0
1,969705230E-1	-8,135596663E-2	9,717252731E0	1,304088354E0	9,804706312E0
1,981665640E-1	-8,853443712E-2	9,722038269E0	1,294517040E0	9,808243513E0
1,993625540E-1	-1,028913707E-1	9,736394882E0	1,292124271E0	9,822298971E0
2,005584920E-1	-1,100698411E-1	9,734002113E0	1,287338614E0	9,819376417E0
2,017544810E-1	-1,052841991E-1	9,724431038E0	1,280160069E0	9,808896654E0
2,029504190E-1	-1,052841991E-1	9,726823807E0	1,272981644E0	9,810334775E0
2,041464080E-1	-1,076770201E-1	9,714859962E0	1,265803218E0	9,797568893E0
2,053423460E-1	-1,076770201E-1	9,712467194E0	1,256231904E0	9,793964056E0
2,065383350E-1	-1,100698411E-1	9,717252731E0	1,239482164E0	9,796603087E0
2,077343250E-1	-1,196411327E-1	9,722038269E0	1,225125194E0	9,799656823E0
2,089302620E-1	-1,363908947E-1	9,724431038E0	1,213161111E0	9,800761265E0
2,101262520E-1	-1,459621787E-1	9,724431038E0	1,203589797E0	9,799718994E0
2,113221890E-1	-1,387837082E-1	9,726823807E0	1,203589797E0	9,801989119E0
2,125181270E-1	-1,316052526E-1	9,734002113E0	1,201196909E0	9,808720156E0
2,137140640E-1	-1,292124242E-1	9,734002113E0	1,191625714E0	9,807520830E0
2,149101060E-1	-1,268195957E-1	9,729216576E0	1,170090318E0	9,800145394E0
2,161060440E-1	-1,196411327E-1	9,717252731E0	1,150947690E0	9,785907992E0
2,173020330E-1	-1,028913707E-1	9,712467194E0	1,143769264E0	9,780123402E0
2,184980230E-1	-8,374879509E-2	9,705288887E0	1,138983607E0	9,772253062E0
2,196939600E-1	-6,460621208E-2	9,688538551E0	1,141376376E0	9,755751804E0
2,208899500E-1	-5,024927482E-2	9,676574707E0	1,153340459E0	9,745194573E0
2,220858870E-1	-5,024927482E-2	9,662218094E0	1,162911773E0	9,732078261E0
2,232818250E-1	-4,546362907E-2	9,659825325E0	1,177268744E0	9,731405548E0
2,244778140E-1	-4,067798331E-2	9,659825325E0	1,194018483E0	9,733424893E0
2,256738040E-1	-3,110669367E-2	9,650253296E0	1,213161111E0	9,726259105E0
2,268697940E-1	-1,674975827E-2	9,631111145E0	1,232303619E0	9,709642355E0
2,280657310E-1	-2,153540403E-2	9,614361763E0	1,253839016E0	9,695799511E0
2,292617210E-1	-3,349951655E-2	9,595218658E0	1,270588875E0	9,679036079E0
2,304576580E-1	-3,110669367E-2	9,573683739E0	1,280160069E0	9,658943926E0
2,316535960E-1	-2,153540403E-2	9,564111710E0	1,296909928E0	9,651666795E0
2,328495330E-1	-1,674975827E-2	9,556933403E0	1,316052437E0	9,647136914E0
2,340455750E-1	-2,632104978E-2	9,544969559E0	1,344766378E0	9,639270371E0
2,352415120E-1	-4,785645381E-2	9,542576790E0	1,380658627E0	9,642057886E0
2,364375020E-1	-5,742774159E-2	9,549755096E0	1,414158225E0	9,654064628E0
2,376334920E-1	-5,503492057E-2	9,556933403E0	1,445264935E0	9,665753755E0
2,388294290E-1	-5,503492057E-2	9,542576790E0	1,471585870E0	9,655535490E0
2,400253670E-1	-5,742774159E-2	9,528220177E0	1,493121386E0	9,644671542E0
2,412213040E-1	-7,178468257E-2	9,528220177E0	1,514656782E0	9,648125100E0
2,424173460E-1	-8,853443712E-2	9,518648148E0	1,538584948E0	9,642600507E0
2,436132830E-1	-8,374879509E-2	9,518648148E0	1,552941918E0	9,644858994E0
2,448092730E-1	-7,896314561E-2	9,525827408E0	1,567298889E0	9,654224401E0
2,460052100E-1	-7,657032460E-2	9,533005714E0	1,591227055E0	9,665198627E0
2,472019810E-1	-7,657032460E-2	9,537791252E0	1,617548108E0	9,674284825E0
2,483971890E-1	-7,896314561E-2	9,537791252E0	1,643869162E0	9,678739741E0
2,495931270E-1	-7,896314561E-2	9,542576790E0	1,672582984E0	9,688371422E0
2,507891170E-1	-8,374879509E-2	9,556933403E0	1,696511269E0	9,706705951E0
2,519850540E-1	-1,004985496E-1	9,576076508E0	1,710868239E0	9,728227555E0
2,531810440E-1	-1,196411327E-1	9,590433121E0	1,737189293E0	9,747232842E0
2,543769810E-1	-1,292124242E-1	9,609575272E0	1,758724689E0	9,770043259E0
2,555729710E-1	-1,531406492E-1	9,631111145E0	1,775474429E0	9,794593580E0
2,567689080E-1	-1,818545163E-1	9,652647018E0	1,797009826E0	9,820178707E0
2,579648460E-1	-2,081755698E-1	9,678967476E0	1,818545222E0	9,850525630E0
2,591607830E-1	-2,416750938E-1	9,710074425E0	1,830509305E0	9,884063765E0
2,603568250E-1	-2,727817893E-1	9,753145218E0	1,830509305E0	9,927185697E0
2,615528140E-1	-2,991028428E-1	9,779465675E0	1,832902193E0	9,954242405E0
2,627487520E-1	-3,373879790E-1	9,793823242E0	1,840080619E0	9,970892690E0
2,639447420E-1	-3,708875179E-1	9,822537422E0	1,842473388E0	1,000072533E1
2,651406790E-1	-3,876372576E-1	9,853643417E0	1,840080619E0	1,003147287E1
2,663366690E-1	-4,067798555E-1	9,884750366E0	1,828116536E0	1,006060484E1
2,675326060E-1	-4,163511395E-1	9,913464546E0	1,820937991E0	1,008791072E1
2,687285440E-1	-4,187439680E-1	9,944570541E0	1,811366796E0	1,011686115E1
2,699245850E-1	-4,354937077E-1	9,968499184E0	1,789831281E0	1,013726426E1
2,711205230E-1	-4,474578202E-1	9,978070259E0	1,753939033E0	1,014092731E1
2,723165120E-1	-4,546363056E-1	1,000917721E1	1,715653777E0	1,016532294E1
2,735124500E-1	-4,618147612E-1	1,003789139E1	1,686939955E0	1,018912669E1
2,747084390E-1	-4,546363056E-1	1,005224800E1	1,660618901E0	1,019862928E1
2,759043770E-1	-4,450650215E-1	1,006660461E1	1,629512191E0	1,020734644E1
2,771003140E-1	-4,378865361E-1	1,008335495E1	1,593619823E0	1,021789684E1
2,782962520E-1	-4,331009090E-1	1,010010433E1	1,564906001E0	1,022979055E1
2,794922940E-1	-4,235295951E-1	1,010488987E1	1,545763373E0	1,023120526E1
2,806882830E-1	-4,139583111E-1	1,010728264E1	1,517049551E0	1,022887888E1
2,818842210E-1	-4,019941986E-1	1,011924744E1	1,502692580E0	1,023810788E1
2,830802100E-1	-3,876372576E-1	1,013360405E1	1,490728498E0	1,024999830E1
2,842761480E-1	-3,756731451E-1	1,013838959E1	1,466800332E0	1,025083299E1
2,854721370E-1	-3,661018610E-1	1,013599682E1	1,450050473E0	1,024573611E1
2,866681270E-1	-3,565305769E-1	1,013360405E1	1,442872047E0	1,024201762E1
2,878640640E-1	-3,541377485E-1	1,012881851E1	1,442872047E0	1,023719970E1
2,890600540E-1	-3,517449200E-1	1,012642574E1	1,450050473E0	1,023576422E1
2,902559920E-1	-3,517449200E-1	1,012164021E1	1,459621787E0	1,023239076E1
2,914519810E-1	-3,541377485E-1	1,010967541E1	1,459621787E0	1,022063825E1
2,926479190E-1	-3,469592929E-1	1,010728264E1	1,454836130E0	1,021734267E1
2,938439080E-1	-3,349951804E-1	1,010010433E1	1,459621787E0	1,021052521E1
2,950398460E-1	-3,278166950E-1	1,008096218E1	1,473978758E0	1,019342316E1
2,962358350E-1	-3,278166950E-1	1,006660461E1	1,485942841E0	1,018096353E1
2,974318250E-1	-3,254238665E-1	1,005464077E1	1,485942841E0	1,016905737E1
2,986277620E-1	-3,182454109E-1	1,005464077E1	1,473978758E0	1,016708879E1
2,998237520E-1	-3,014956415E-1	1,004746246E1	1,469193101E0	1,015878585E1
3,010196890E-1	-2,727817893E-1	1,003789139E1	1,457229018E0	1,014678224E1
3,022156790E-1	-2,464607358E-1	1,002592659E1	1,447657704E0	1,013289987E1
3,034116170E-1	-2,344966233E-1	1,001396275E1	1,450050473E0	1,012112073E1
3,046076060E-1	-2,201396823E-1	1,001396275E1	1,450050473E0	1,012079828E1
3,058035440E-1	-2,009970993E-1	1,002114105E1	1,450050473E0	1,012750286E1
3,069995330E-1	-1,770688742E-1	1,002831936E1	1,454836130E0	1,013484537E1
3,081955230E-1	-1,507478207E-1	1,003789139E1	1,464407444E0	1,014526873E1
3,093914600E-1	-1,292124242E-1	1,003549862E1	1,481157184E0	1,014503598E1
3,105874500E-1	-1,076770201E-1	1,003071213E1	1,497906923E0	1,014250981E1
3,117833870E-1	-9,092725813E-2	1,001396275E1	1,505085468E0	1,012684551E1
3,129793770E-1	-8,853443712E-2	9,997213364E0	1,517049551E0	1,011204988E1
3,141753140E-1	-9,332008660E-2	9,997213364E0	1,538584948E0	1,011534613E1
3,153713040E-1	-8,853443712E-2	9,994820595E0	1,567298889E0	1,011734663E1
3,165672940E-1	-8,135596663E-2	9,980463028E0	1,598405480E0	1,010797512E1
3,177632310E-1	-6,699903309E-2	9,966106415E0	1,622333765E0	1,009751122E1
3,189592210E-1	-4,307080805E-2	9,942177773E0	1,634297848E0	1,007569766E1
3,201551580E-1	-3,828516230E-2	9,920642853E0	1,648654819E0	1,005677300E1
3,213511480E-1	-3,828516230E-2	9,908679008E0	1,667797327E0	1,004813084E1
3,225470850E-1	-1,435693540E-2	9,899106979E0	1,689332843E0	1,004222936E1
3,237430750E-1	-4,785645287E-3	9,887143135E0	1,720439434E0	1,003571294E1
3,249390120E-1	-9,571290575E-3	9,877572060E0	1,746760488E0	1,003083713E1
3,261350020E-1	-7,178467698E-3	9,870393753E0	1,756331801E0	1,002543893E1
3,273309920E-1	9,571290575E-3	9,875179291E0	1,751546144E0	1,002931561E1
3,285269290E-1	2,392822690E-2	9,891928673E0	1,756331801E0	1,004666745E1
3,297229190E-1	2,632104978E-2	9,891928673E0	1,761117458E0	1,004751115E1
3,309188560E-1	3,349951655E-2	9,884750366E0	1,758724689E0	1,004004604E1
3,321148460E-1	4,546362907E-2	9,875179291E0	1,758724689E0	1,003067024E1
3,333107830E-1	6,221338734E-2	9,868000984E0	1,763510346E0	1,002453404E1
3,345067730E-1	6,460621208E-2	9,870393753E0	1,758724689E0	1,002606400E1
3,357027620E-1	6,699903309E-2	9,879964828E0	1,744367719E0	1,003299619E1
3,368987000E-1	6,460621208E-2	9,899106979E0	1,739582062E0	1,005100188E1
3,380946890E-1	5,503492057E-2	9,923035622E0	1,732403636E0	1,007327589E1
3,392906270E-1	5,024927482E-2	9,930213928E0	1,720439434E0	1,007827294E1
3,404866170E-1	3,828516230E-2	9,930213928E0	1,708475351E0	1,007618491E1
3,416825540E-1	2,392822690E-2	9,927821159E0	1,698904037E0	1,007216364E1
3,428785440E-1	1,674975827E-2	9,920642853E0	1,691725612E0	1,006386460E1
3,440744810E-1	7,178467698E-3	9,915857315E0	1,682154298E0	1,005753056E1
3,452704710E-1	-4,785645287E-3	9,918250084E0	1,670190215E0	1,005789456E1
3,464664600E-1	-1,435693540E-2	9,918250084E0	1,658226132E0	1,005592386E1
3,476623980E-1	-1,196411345E-2	9,903892517E0	1,636690736E0	1,003822627E1
3,488583870E-1	-4,785645287E-3	9,879964828E0	1,607976794E0	1,000996090E1
3,500543250E-1	-7,178467698E-3	9,863214493E0	1,581655741E0	9,989228526E0
3,512503140E-1	-7,178467698E-3	9,853643417E0	1,567298889E0	9,977513014E0
3,524462520E-1	2,392822644E-3	9,853643417E0	1,552941918E0	9,975265557E0
3,536422420E-1	1,435693540E-2	9,858428955E0	1,536192179E0	9,977410185E0
3,548381790E-1	1,914258115E-2	9,848857880E0	1,519442320E0	9,965393767E0
3,560341690E-1	3,589234129E-2	9,824930191E0	1,500299811E0	9,938885302E0
3,572301580E-1	5,982056633E-2	9,820143700E0	1,471585870E0	9,929973099E0
3,584260960E-1	6,460621208E-2	9,820143700E0	1,447657704E0	9,926485233E0
3,596220850E-1	7,657032460E-2	9,817750931E0	1,426122308E0	9,921084678E0
3,608180230E-1	9,571290761E-2	9,817750931E0	1,411765337E0	9,919197330E0
3,620140120E-1	1,100698411E-1	9,812965393E0	1,402194023E0	9,913251397E0
3,632099500E-1	1,387837082E-1	9,801001549E0	1,395015597E0	9,900755567E0
3,644059390E-1	1,722832322E-1	9,789037704E0	1,399801254E0	9,890115482E0
3,656019290E-1	1,962114573E-1	9,781859398E0	1,406979680E0	9,884475911E0
3,667978670E-1	2,129612118E-1	9,777072906E0	1,409372568E0	9,880427022E0
3,679938560E-1	2,153540403E-1	9,772287369E0	1,404586911E0	9,875061629E0
3,691897940E-1	2,177468538E-1	9,769894600E0	1,399801254E0	9,872066538E0
3,703857830E-1	2,368894368E-1	9,753145218E0	1,397408366E0	9,855592747E0
3,715817210E-1	2,488535494E-1	9,714859962E0	1,395015597E0	9,817662690E0
3,727777100E-1	2,560320199E-1	9,693324089E0	1,404586911E0	9,797905321E0
3,739736480E-1	2,703889608E-1	9,681360245E0	1,418943882E0	9,788526351E0
3,751696370E-1	2,751746178E-1	9,669396400E0	1,435693622E0	9,779272161E0
3,763656270E-1	2,871387303E-1	9,659825325E0	1,452443361E0	9,772628391E0
3,775615640E-1	2,991028428E-1	9,640682220E0	1,464407444E0	9,755854927E0
3,787575540E-1	2,991028428E-1	9,626325607E0	1,481157184E0	9,744200009E0
3,799534920E-1	2,919243574E-1	9,623932838E0	1,505085468E0	9,745285290E0
3,811494810E-1	2,943171859E-1	9,619147301E0	1,526620865E0	9,743982177E0
3,823454190E-1	3,014956415E-1	9,597611427E0	1,552941918E0	9,727110225E0
3,835414080E-1	2,967100143E-1	9,566504478E0	1,581655741E0	9,700911279E0
3,847373460E-1	2,919243574E-1	9,544969559E0	1,600798368E0	9,682676238E0
3,859333350E-1	2,871387303E-1	9,540184021E0	1,610369682E0	9,679403407E0
3,871293250E-1	2,727817893E-1	9,542576790E0	1,617548108E0	9,682543239E0
3,883252620E-1	2,416750938E-1	9,549755096E0	1,619940877E0	9,689191798E0
3,895212520E-1	2,081755698E-1	9,568898201E0	1,627119422E0	9,708484303E0
3,907171890E-1	1,914258152E-1	9,573683739E0	1,631905079E0	9,713659370E0
3,919131790E-1	1,794617027E-1	9,580862045E0	1,629512191E0	9,720104630E0
3,931091170E-1	1,627119333E-1	9,590433121E0	1,629512191E0	9,729244195E0
3,943051060E-1	1,387837082E-1	9,590433121E0	1,622333765E0	9,727673679E0
3,955010960E-1	1,148554832E-1	9,595218658E0	1,619940877E0	9,731681321E0
3,966970330E-1	1,004985496E-1	9,619147301E0	1,619940877E0	9,755116770E0
3,978930230E-1	8,614161611E-2	9,643074989E0	1,617548108E0	9,778178640E0
3,990889600E-1	7,178468257E-2	9,657432556E0	1,617548108E0	9,792222347E0
4,002849500E-1	6,460621208E-2	9,686145782E0	1,619940877E0	9,820886036E0
4,014808870E-1	5,024927482E-2	9,714859962E0	1,615155339E0	9,848337720E0
4,026768770E-1	3,589234129E-2	9,726823807E0	1,607976794E0	9,858903539E0
4,038728670E-1	2,153540403E-2	9,731609344E0	1,603191137E0	9,862804167E0
4,050688040E-1	2,392822644E-3	9,750752449E0	1,603191137E0	9,881669943E0
4,062647940E-1	-7,178467698E-3	9,767501831E0	1,596012712E0	9,897039968E0
4,074607310E-1	-1,674975827E-2	9,779465675E0	1,586441398E0	9,907321826E0
4,086567210E-1	-2,153540403E-2	9,791430473E0	1,572084427E0	9,916855547E0
4,098526580E-1	-3,349951655E-2	9,798608780E0	1,550549030E0	9,920587610E0
4,110486480E-1	-5,264209956E-2	9,808179855E0	1,536192179E0	9,927892509E0
4,122445850E-1	-6,221338734E-2	9,824930191E0	1,519442320E0	9,941922788E0
4,134405750E-1	-7,657032460E-2	9,841679573E0	1,502692580E0	9,956033589E0
4,146365640E-1	-8,853443712E-2	9,853643417E0	1,495514154E0	9,966879629E0
4,158325020E-1	-7,896314561E-2	9,860821724E0	1,481157184E0	9,971753449E0
4,170284920E-1	-7,896314561E-2	9,856036186E0	1,459621787E0	9,963843648E0
4,182244290E-1	-8,614161611E-2	9,856036186E0	1,435693622E0	9,960425988E0
4,194204190E-1	-7,896314561E-2	9,863214493E0	1,411765337E0	9,964051218E0
4,206163560E-1	-5,982056633E-2	9,872786522E0	1,385444283E0	9,969701504E0
4,218123460E-1	-5,264209956E-2	9,882357597E0	1,349551916E0	9,974219430E0
4,230082830E-1	-5,024927482E-2	9,891928673E0	1,316052437E0	9,979216997E0
4,242042730E-1	-3,349951655E-2	9,901499748E0	1,287338614E0	9,984891596E0
4,254002620E-1	-7,178467698E-3	9,911071777E0	1,251446247E0	9,989770419E0
4,265962000E-1	1,196411345E-2	9,930213928E0	1,220339537E0	1,000492481E1
4,277921890E-1	4,307080805E-2	9,932606697E0	1,191625714E0	1,000392437E1
4,289881270E-1	7,417750359E-2	9,930213928E0	1,160519004E0	9,998072580E0
4,301841170E-1	9,571290761E-2	9,927821159E0	1,141376376E0	9,993674698E0
4,313800540E-1	1,316052526E-1	9,915857315E0	1,129412293E0	9,980837558E0
4,325760440E-1	1,651047617E-1	9,908679008E0	1,124626637E0	9,973663537E0
4,337720330E-1	1,890329868E-1	9,903892517E0	1,117448211E0	9,968526018E0
4,349679710E-1	2,057827413E-1	9,903892517E0	1,100698471E0	9,966994063E0
4,361639600E-1	2,321037948E-1	9,884750366E0	1,083948612E0	9,946713355E0
4,373598980E-1	2,656033039E-1	9,865608215E0	1,071984529E0	9,927231306E0
4,385558870E-1	2,919243574E-1	9,853643417E0	1,052842021E0	9,914029693E0
4,397518250E-1	3,206382394E-1	9,841679573E0	1,036092162E0	9,901260156E0
4,409478140E-1	3,493520916E-1	9,829715729E0	1,026520967E0	9,889342925E0
4,421437520E-1	3,637090325E-1	9,810572624E0	1,016949654E0	9,869843265E0
4,433397420E-1	3,828516304E-1	9,789037704E0	1,016949654E0	9,849163475E0
4,445357310E-1	4,091726840E-1	9,769894600E0	1,031306505E0	9,832693216E0
4,457316690E-1	4,354937077E-1	9,755537987E0	1,031306505E0	9,819560545E0
4,469276580E-1	4,474578202E-1	9,741181374E0	1,019342422E0	9,804585255E0
4,481235960E-1	4,642075896E-1	9,722038269E0	1,009771109E0	9,785354081E0
4,493195850E-1	5,024927258E-1	9,693324089E0	1,012163997E0	9,758970581E0
4,505155230E-1	5,383850932E-1	9,664610863E0	1,014556766E0	9,732619743E0
4,517115120E-1	5,527420044E-1	9,638289452E0	1,012163997E0	9,707039880E0
4,529075020E-1	5,647061467E-1	9,623932838E0	1,014556766E0	9,693724864E0
4,541034390E-1	5,862415433E-1	9,616754532E0	1,014556766E0	9,687877595E0
4,552994290E-1	6,053841114E-1	9,609575272E0	1,012163997E0	9,681678717E0
4,564953670E-1	6,293123364E-1	9,595218658E0	1,016949654E0	9,669459226E0
4,576913560E-1	6,508477330E-1	9,578469276E0	1,026520967E0	9,655279475E0
4,588872940E-1	6,675975323E-1	9,559326172E0	1,028913736E0	9,637689910E0
4,600832830E-1	6,795616150E-1	9,537791252E0	1,028913736E0	9,617168473E0
4,612792210E-1	6,915257573E-1	9,516255379E0	1,028913736E0	9,596665451E0
4,624752100E-1	7,130611539E-1	9,504291534E0	1,038485050E0	9,587411798E0
4,636711480E-1	7,178468108E-1	9,499505997E0	1,055234790E0	9,584854651E0
4,648671370E-1	7,130611539E-1	9,492327690E0	1,060020447E0	9,577911282E0
4,660631270E-1	7,154539824E-1	9,482755661E0	1,057627559E0	9,568338695E0
4,672590640E-1	7,250252366E-1	9,473184586E0	1,064806104E0	9,560371323E0
4,684550540E-1	7,369893789E-1	9,475577354E0	1,071984529E0	9,564458708E0
4,696509920E-1	7,369893789E-1	9,480362892E0	1,083948612E0	9,570547451E0
4,708469810E-1	7,393822074E-1	9,466006279E0	1,095912814E0	9,557875591E0
4,720429190E-1	7,417750359E-1	9,466006279E0	1,098305583E0	9,558335641E0
4,732389080E-1	7,369893789E-1	9,477970123E0	1,100698471E0	9,570089243E0
4,744348980E-1	7,345965505E-1	9,480362892E0	1,100698471E0	9,572275058E0
4,756308350E-1	7,345965505E-1	9,480362892E0	1,093519926E0	9,571452266E0
4,768268250E-1	7,369893789E-1	9,489934921E0	1,091127157E0	9,580844254E0
4,780227620E-1	7,369893789E-1	9,506684303E0	1,088734269E0	9,597163232E0
4,792187520E-1	7,322037220E-1	9,523433685E0	1,093519926E0	9,613932456E0
4,804146890E-1	7,106683254E-1	9,535398483E0	1,103091240E0	9,625262801E0
4,816106790E-1	6,915257573E-1	9,530612946E0	1,110269666E0	9,619952688E0
4,828066170E-1	6,867401004E-1	9,525827408E0	1,110269666E0	9,614868616E0
4,840026060E-1	6,819544435E-1	9,528220177E0	1,119840980E0	9,618008391E0
4,851985960E-1	6,867401004E-1	9,533005714E0	1,131805062E0	9,624489213E0
4,863945330E-1	6,747759581E-1	9,544969559E0	1,134197950E0	9,635775602E0
4,875905230E-1	6,508477330E-1	9,549755096E0	1,138983607E0	9,639435089E0
4,887864600E-1	6,388836503E-1	9,556933403E0	1,148554921E0	9,646881714E0
4,899824500E-1	6,221339107E-1	9,568898201E0	1,155733347E0	9,658497966E0
4,911783870E-1	5,982056856E-1	9,576076508E0	1,177268744E0	9,666698144E0
4,923743770E-1	5,790630579E-1	9,583254814E0	1,203589797E0	9,675883177E0
4,935703670E-1	5,503492355E-1	9,590433121E0	1,222732425E0	9,683716554E0
4,947663040E-1	5,192425251E-1	9,597611427E0	1,251446247E0	9,692774403E0
4,959622940E-1	5,000999570E-1	9,604789734E0	1,287338614E0	9,703572873E0
4,971582310E-1	4,881358147E-1	9,609575272E0	1,323230863E0	9,712525593E0
4,983542210E-1	4,761717021E-1	9,604789734E0	1,359123230E0	9,712154307E0
4,995501580E-1	4,642075896E-1	9,600004196E0	1,399801254E0	9,712621315E0
5,007461480E-1	4,426721931E-1	9,600004196E0	1,435693622E0	9,716854193E0
5,019420850E-1	4,163511395E-1	9,580862045E0	1,473978758E0	9,702519218E0
5,031380750E-1	4,043870270E-1	9,556933403E0	1,519442320E0	9,685412222E0
5,043340640E-1	3,972085714E-1	9,542576790E0	1,562513232E0	9,677809362E0
5,055300020E-1	3,732803464E-1	9,542576790E0	1,610369682E0	9,684699299E0
5,067259920E-1	3,541377485E-1	9,542576790E0	1,660618901E0	9,692463076E0
5,079219290E-1	3,349951804E-1	9,535398483E0	1,701296926E0	9,691772657E0
5,091179190E-1	3,254238665E-1	9,540184021E0	1,732403636E0	9,701661415E0
5,103138560E-1	3,230310678E-1	9,542576790E0	1,770688772E0	9,710842373E0
5,115098460E-1	3,086741269E-1	9,537791252E0	1,804188251E0	9,711840038E0
5,127057830E-1	3,014956415E-1	9,542576790E0	1,830509305E0	9,721236327E0
5,139017730E-1	2,943171859E-1	9,559326172E0	1,861616015E0	9,743354333E0
5,150977620E-1	2,727817893E-1	9,568898201E0	1,887937069E0	9,757178335E0
5,162937000E-1	2,440679073E-1	9,571290970E0	1,911865234E0	9,763421974E0
5,174896890E-1	2,201396823E-1	9,576076508E0	1,942971945E0	9,773681125E0
5,186856270E-1	1,914258152E-1	9,573683739E0	1,966900229E0	9,775518436E0
5,198816170E-1	1,651047617E-1	9,571290970E0	1,978864312E0	9,775109942E0
5,210775540E-1	1,459621787E-1	9,576076508E0	1,986042738E0	9,780946375E0
5,222735440E-1	1,363908947E-1	9,580862045E0	2,002792597E0	9,788906895E0
5,234695330E-1	1,196411327E-1	9,583254814E0	2,012363911E0	9,792992155E0
5,246654710E-1	8,614161611E-2	9,580862045E0	2,012363911E0	9,790298587E0
5,258614600E-1	5,982056633E-2	9,588040352E0	2,024327993E0	9,799591834E0
5,270573980E-1	4,307080805E-2	9,588040352E0	2,036292076E0	9,801982366E0
5,282533870E-1	2,153540403E-2	9,573683739E0	2,043470621E0	9,789364447E0
5,294493770E-1	0,000000000E0	9,568898201E0	2,053041935E0	9,786664088E0
5,306453140E-1	-1,196411345E-2	9,580862045E0	2,065006018E0	9,800883150E0
5,318413040E-1	-1,196411345E-2	9,588040352E0	2,060220242E0	9,806893921E0
5,330372420E-1	-1,914258115E-2	9,590433121E0	2,050648928E0	9,807238903E0
5,342332310E-1	-2,392822690E-2	9,590433121E0	2,048256159E0	9,806749375E0
5,354291690E-1	-3,110669367E-2	9,590433121E0	2,045863390E0	9,806270039E0
5,366251580E-1	-3,828516230E-2	9,592825890E0	2,050648928E0	9,809634821E0
5,378210960E-1	-2,392822690E-2	9,595218658E0	2,043470621E0	9,810431481E0
5,390170850E-1	-2,153540403E-2	9,600004196E0	2,029113531E0	9,812127499E0
5,402130750E-1	-3,349951655E-2	9,614361763E0	2,024327993E0	9,825221532E0
5,414090120E-1	-4,307080805E-2	9,631111145E0	2,024327993E0	9,841649293E0
5,426050020E-1	-4,067798331E-2	9,645467758E0	2,014756680E0	9,853727592E0
5,438009390E-1	-4,546362907E-2	9,645467758E0	1,990828395E0	9,848883841E0
5,449969290E-1	-4,546362907E-2	9,638289452E0	1,974078655E0	9,838479406E0
5,461928670E-1	-3,349951655E-2	9,645467758E0	1,950150490E0	9,840693950E0
5,473888560E-1	-2,871387079E-2	9,645467758E0	1,923829436E0	9,835496554E0
5,485847940E-1	-1,674975827E-2	9,635896683E0	1,909472466E0	9,823282065E0
5,497807830E-1	-2,392822644E-3	9,628718376E0	1,887937069E0	9,812060419E0
5,509767730E-1	2,392822644E-3	9,635896683E0	1,859223247E0	9,813624289E0
5,521727100E-1	1,196411345E-2	9,643074989E0	1,835294962E0	9,816177769E0
5,533687000E-1	3,110669367E-2	9,635896683E0	1,816152334E0	9,805604612E0
5,545646370E-1	5,024927482E-2	9,623932838E0	1,794616938E0	9,789957008E0
5,557606270E-1	6,939185411E-2	9,616754532E0	1,768295884E0	9,778223422E0
5,569565640E-1	8,614161611E-2	9,607182503E0	1,749153376E0	9,765496073E0
5,581525540E-1	1,028913707E-1	9,600004196E0	1,720439434E0	9,753490608E0
5,593484920E-1	1,196411327E-1	9,609575272E0	1,684547186E0	9,756841196E0
5,605444810E-1	1,292124242E-1	9,614361763E0	1,655833244E0	9,756763382E0
5,617404710E-1	1,316052526E-1	9,607182503E0	1,624726534E0	9,744486230E0
5,629364080E-1	1,387837082E-1	9,604789734E0	1,600798368E0	9,738264844E0
5,641323980E-1	1,555334777E-1	9,602396965E0	1,574477315E0	9,731865029E0
5,653283350E-1	1,698904037E-1	9,592825890E0	1,543370605E0	9,717672773E0
5,665243250E-1	1,818545163E-1	9,588040352E0	1,526620865E0	9,710518015E0
5,677202620E-1	1,938186288E-1	9,588040352E0	1,514656782E0	9,708875765E0
5,689162520E-1	2,033899277E-1	9,585647583E0	1,493121386E0	9,703371503E0
5,701121890E-1	2,177468538E-1	9,585647583E0	1,464407444E0	9,699306287E0
5,713081790E-1	2,297109663E-1	9,573683739E0	1,445264935E0	9,684884005E0
5,725041690E-1	2,368894368E-1	9,564111710E0	1,438086390E0	9,674525408E0
5,737001060E-1	2,464607358E-1	9,568898201E0	1,430907965E0	9,678432377E0
5,748960960E-1	2,512463629E-1	9,578469276E0	1,421336651E0	9,686609122E0
5,760920330E-1	2,536391914E-1	9,583254814E0	1,416550994E0	9,690702884E0
5,772880230E-1	2,632105052E-1	9,585647583E0	1,411765337E0	9,692626100E0
5,784839600E-1	2,632105052E-1	9,585647583E0	1,399801254E0	9,690890718E0
5,796799500E-1	2,608176768E-1	9,590433121E0	1,397408366E0	9,695214461E0
5,808759390E-1	2,751746178E-1	9,590433121E0	1,395015597E0	9,695266733E0
5,820718770E-1	2,919243574E-1	9,580862045E0	1,385444283E0	9,684915757E0
5,832678670E-1	2,943171859E-1	9,573683739E0	1,378265858E0	9,676862080E0
5,844638040E-1	2,919243574E-1	9,573683739E0	1,371087432E0	9,675769784E0
5,856597940E-1	3,014956415E-1	9,578469276E0	1,361516118E0	9,679447269E0
5,868557310E-1	2,991028428E-1	9,588040352E0	1,344766378E0	9,686504886E0
5,880517210E-1	3,014956415E-1	9,588040352E0	1,335195065E0	9,685254941E0
5,892477100E-1	3,062812984E-1	9,585647583E0	1,335195065E0	9,683036387E0
5,904436480E-1	2,919243574E-1	9,588040352E0	1,325623751E0	9,683646831E0
5,916396370E-1	2,799602449E-1	9,590433121E0	1,313659668E0	9,684032575E0
5,928355750E-1	2,632105052E-1	9,595218658E0	1,308874011E0	9,687654621E0
5,940315640E-1	2,464607358E-1	9,597611427E0	1,304088354E0	9,688938767E0
5,952275020E-1	2,344966233E-1	9,592825890E0	1,299302697E0	9,683257960E0
5,964234920E-1	2,153540403E-1	9,602396965E0	1,294517040E0	9,691655132E0
5,976194290E-1	1,866401732E-1	9,614361763E0	1,299302697E0	9,703554718E0
5,988154190E-1	1,651047617E-1	9,621540070E0	1,323230863E0	9,713507750E0
6,000114080E-1	1,435693651E-1	9,638289452E0	1,342373490E0	9,732379067E0
6,012073460E-1	1,220339537E-1	9,647860527E0	1,359123230E0	9,743886339E0
6,024033350E-1	1,004985496E-1	9,652647018E0	1,378265858E0	9,751067182E0
6,035992730E-1	9,092725813E-2	9,659825325E0	1,390229940E0	9,759776246E0
6,047952620E-1	7,896314561E-2	9,671789169E0	1,406979680E0	9,773910821E0
6,059912000E-1	6,221338734E-2	9,683753014E0	1,418943882E0	9,787356368E0
6,071871890E-1	5,742774159E-2	9,690931320E0	1,430907965E0	9,796169935E0
6,083831790E-1	5,024927482E-2	9,695717812E0	1,447657704E0	9,803325033E0
6,095791170E-1	4,546362907E-2	9,698110580E0	1,462014675E0	9,807798055E0
6,107751060E-1	4,067798331E-2	9,698110580E0	1,485942841E0	9,811372465E0
6,119710440E-1	3,828516230E-2	9,695717812E0	1,514656782E0	9,813388548E0
6,131670330E-1	3,828516230E-2	9,698110580E0	1,529013634E0	9,817978268E0
6,143629710E-1	4,307080805E-2	9,695717812E0	1,538584948E0	9,817130060E0
6,155589600E-1	4,785645381E-2	9,693324089E0	1,550549030E0	9,816670741E0
6,167548980E-1	5,503492057E-2	9,700503349E0	1,564906001E0	9,826073726E0
6,179508870E-1	5,503492057E-2	9,710074425E0	1,584048629E0	9,838586496E0
6,191468770E-1	5,024927482E-2	9,726823807E0	1,598405480E0	9,857409722E0
6,203428140E-1	4,307080805E-2	9,736394882E0	1,598405480E0	9,866820181E0
6,215388040E-1	4,785645381E-2	9,745966911E0	1,591227055E0	9,875128597E0
6,227347420E-1	5,503492057E-2	9,762716293E0	1,591227055E0	9,891696609E0
6,239307310E-1	5,264209956E-2	9,779465675E0	1,588834286E0	9,907830967E0
6,251266690E-1	4,307080805E-2	9,793823242E0	1,586441398E0	9,921573721E0
6,263226580E-1	4,546362907E-2	9,803394318E0	1,584048629E0	9,930650389E0
6,275186480E-1	5,024927482E-2	9,815358162E0	1,572084427E0	9,940585007E0
6,287145850E-1	4,785645381E-2	9,829715729E0	1,548156261E0	9,950999415E0
6,299105750E-1	3,828516230E-2	9,844072342E0	1,526620865E0	9,961816967E0
6,311065120E-1	2,871387079E-2	9,856036186E0	1,509871125E0	9,971057346E0
6,323025020E-1	2,392822690E-2	9,856036186E0	1,483550072E0	9,967092990E0
6,334984390E-1	2,392822690E-2	9,863214493E0	1,457229018E0	9,970310381E0
6,346944290E-1	3,110669367E-2	9,870393753E0	1,433300734E0	9,973965684E0
6,358904190E-1	3,828516230E-2	9,872786522E0	1,409372568E0	9,972948937E0
6,370863560E-1	4,307080805E-2	9,884750366E0	1,395015597E0	9,982795872E0
6,382823460E-1	5,024927482E-2	9,891928673E0	1,387837172E0	9,988937375E0
6,394782830E-1	5,503492057E-2	9,889535904E0	1,378265858E0	9,985267448E0
6,406742730E-1	5,024927482E-2	9,891928673E0	1,373480201E0	9,986952774E0
6,418702100E-1	4,307080805E-2	9,891928673E0	1,373480201E0	9,986919236E0
6,430662000E-1	4,307080805E-2	9,899106979E0	1,368694544E0	9,993372746E0
6,442621370E-1	4,546362907E-2	9,908679008E0	1,347159147E0	9,999941220E0
6,454581270E-1	5,503492057E-2	9,901499748E0	1,328016520E0	9,990313007E0
6,466541170E-1	6,460621208E-2	9,889535904E0	1,306481123E0	9,975669766E0
6,478500540E-1	6,939185411E-2	9,875179291E0	1,294517040E0	9,959907410E0
6,490460440E-1	7,896314561E-2	9,868000984E0	1,280160069E0	9,951004392E0
6,502419810E-1	8,614161611E-2	9,868000984E0	1,256231904E0	9,948013993E0
6,514379710E-1	8,374879509E-2	9,868000984E0	1,232303619E0	9,945000226E0
6,526339080E-1	7,896314561E-2	9,865608215E0	1,208375454E0	9,939649484E0
6,538298980E-1	8,374879509E-2	9,858428955E0	1,186840057E0	9,929965994E0
6,550258870E-1	9,332008660E-2	9,839286804E0	1,165304661E0	9,908491732E0
6,562218250E-1	9,571290761E-2	9,829715729E0	1,146162033E0	9,896775216E0
6,574178140E-1	1,004985496E-1	9,829715729E0	1,124626637E0	9,894351739E0
6,586137520E-1	1,004985496E-1	9,812965393E0	1,100698471E0	9,875015285E0
6,598097420E-1	9,810572863E-2	9,793823242E0	1,076770186E0	9,853325960E0
6,610056790E-1	1,052841991E-1	9,774680138E0	1,052842021E0	9,831781775E0
6,622016690E-1	1,052841991E-1	9,762716293E0	1,038485050E0	9,818358589E0
6,633976060E-1	1,076770201E-1	9,765109062E0	1,024128079E0	9,819255963E0
6,645935960E-1	1,196411327E-1	9,760323524E0	1,009771109E0	9,813147660E0
6,657895850E-1	1,268195957E-1	9,750752449E0	1,000199914E0	9,802737189E0
6,669855230E-1	1,292124242E-1	9,736394882E0	9,906286001E-1	9,787513789E0
6,681815120E-1	1,435693651E-1	9,729216576E0	9,810572863E-1	9,779608414E0
6,693774500E-1	1,531406492E-1	9,719645500E0	9,786644578E-1	9,769992059E0
6,705734390E-1	1,531406492E-1	9,698110580E0	9,762716293E-1	9,748328430E0
6,717693770E-1	1,627119333E-1	9,688538551E0	9,714859724E-1	9,738482399E0
6,729653670E-1	1,722832322E-1	9,674181938E0	9,643075466E-1	9,723649867E0
6,741613040E-1	1,794617027E-1	9,650253296E0	9,523434043E-1	9,698791324E0
6,753572940E-1	1,746760458E-1	9,633503914E0	9,571290612E-1	9,682510285E0
6,765532830E-1	1,794617027E-1	9,616754532E0	9,714859724E-1	9,667365682E0
6,777492210E-1	2,033899277E-1	9,602396965E0	9,810572863E-1	9,654525795E0
6,789452100E-1	2,129612118E-1	9,602396965E0	1,000199914E0	9,656696113E0
6,801411480E-1	2,153540403E-1	9,604789734E0	1,026520967E0	9,661889489E0
6,813371370E-1	2,153540403E-1	9,597611427E0	1,055234790E0	9,657848774E0
6,825330750E-1	2,201396823E-1	9,590433121E0	1,081555843E0	9,653736684E0
6,837290640E-1	2,249253243E-1	9,578469276E0	1,105484009E0	9,644675214E0
6,849250540E-1	2,129612118E-1	9,564111710E0	1,148554921E0	9,635183635E0
6,861209920E-1	2,057827413E-1	9,576076508E0	1,198804140E0	9,653016067E0
6,873169810E-1	1,866401732E-1	9,588040352E0	1,239482164E0	9,669626072E0
6,885129190E-1	1,627119333E-1	9,576076508E0	1,277767301E0	9,662318859E0
6,897089080E-1	1,531406492E-1	9,580862045E0	1,320838094E0	9,672692637E0
6,909048460E-1	1,387837082E-1	9,597611427E0	1,366301775E0	9,695369336E0
6,921008350E-1	1,292124242E-1	9,607182503E0	1,409372568E0	9,710869298E0
6,932968250E-1	1,196411327E-1	9,626325607E0	1,450050473E0	9,735661512E0
6,944927620E-1	1,028913707E-1	9,640682220E0	1,488335729E0	9,755433540E0
6,956887000E-1	7,417750359E-2	9,645467758E0	1,529013634E0	9,766188267E0
6,968846890E-1	5,024927482E-2	9,662218094E0	1,567298889E0	9,788636743E0
6,980806790E-1	3,349951655E-2	9,676574707E0	1,593619823E0	9,806979373E0
6,992766170E-1	2,153540403E-2	9,676574707E0	1,615155339E0	9,810468317E0
7,004726060E-1	1,196411345E-2	9,676574707E0	1,639083505E0	9,814419796E0
7,016685440E-1	2,392822644E-3	9,686145782E0	1,660618901E0	9,827465644E0
7,028645330E-1	2,392822644E-3	9,690931320E0	1,674975872E0	9,834617418E0
7,040604710E-1	0,000000000E0	9,698110580E0	1,689332843E0	9,844145178E0
7,052564600E-1	-9,571290575E-3	9,698110580E0	1,698904037E0	9,845796838E0
7,064524500E-1	-1,435693540E-2	9,693324089E0	1,708475351E0	9,842744843E0
7,076483870E-1	-1,674975827E-2	9,683753014E0	1,720439434E0	9,835408727E0
7,088443770E-1	-1,914258115E-2	9,676574707E0	1,725225091E0	9,829184407E0
7,100403140E-1	-1,914258115E-2	9,676574707E0	1,727617979E0	9,829604691E0
7,112363040E-1	-1,674975827E-2	9,667003632E0	1,730010748E0	9,820599623E0
7,124322940E-1	-2,153540403E-2	9,664610863E0	1,718046665E0	9,816152568E0
7,136282310E-1	-2,871387079E-2	9,667003632E0	1,713261008E0	9,817690512E0
7,148242210E-1	-3,589234129E-2	9,669396400E0	1,715653777E0	9,820487915E0
7,160201580E-1	-4,067798331E-2	9,674181938E0	1,696511269E0	9,821893980E0
7,172161480E-1	-3,828516230E-2	9,676574707E0	1,674975872E0	9,820545198E0
7,184120850E-1	-4,546362907E-2	9,678967476E0	1,660618901E0	9,820495582E0
7,196080750E-1	-5,264209956E-2	9,683753014E0	1,643869162E0	9,822430933E0
7,208040120E-1	-5,503492057E-2	9,690931320E0	1,617548108E0	9,825153463E0
7,220000020E-1	-6,221338734E-2	9,702896118E0	1,586441398E0	9,831930629E0
7,231959920E-1	-7,417750359E-2	9,707681656E0	1,550549030E0	9,831011531E0
7,243919290E-1	-7,896314561E-2	9,710074425E0	1,519442320E0	9,828554597E0
7,255879190E-1	-6,699903309E-2	9,719645500E0	1,488335729E0	9,833165348E0
7,267838560E-1	-6,221338734E-2	9,722038269E0	1,450050473E0	9,829778481E0
7,279798460E-1	-6,221338734E-2	9,731609344E0	1,411765337E0	9,833675422E0
7,291757830E-1	-4,546362907E-2	9,743574142E0	1,371087432E0	9,839674017E0
7,303717730E-1	-3,110669367E-2	9,745966911E0	1,347159147E0	9,838682657E0
7,315677620E-1	-1,674975827E-2	9,734002113E0	1,323230863E0	9,823544045E0
7,327637000E-1	2,392822644E-3	9,719645500E0	1,289731383E0	9,804841733E0
7,339596890E-1	4,785645287E-3	9,710074425E0	1,256231904E0	9,791000298E0
7,351556270E-1	2,392822644E-3	9,710074425E0	1,220339537E0	9,786458994E0
7,363516170E-1	7,178467698E-3	9,712467194E0	1,179661512E0	9,783847495E0
7,375475540E-1	4,785645287E-3	9,695717812E0	1,153340459E0	9,764075020E0
7,387435440E-1	1,674975827E-2	9,681360245E0	1,138983607E0	9,748143434E0
7,399394810E-1	3,828516230E-2	9,669396400E0	1,127019525E0	9,734930175E0
7,411354710E-1	5,503492057E-2	9,655039787E0	1,122233868E0	9,720197065E0
7,423314600E-1	6,221338734E-2	9,640682220E0	1,117448211E0	9,705427074E0
7,435273980E-1	6,221338734E-2	9,635896683E0	1,107876897E0	9,699575589E0
7,447233870E-1	6,939185411E-2	9,633503914E0	1,100698471E0	9,696429756E0
7,459193250E-1	8,614161611E-2	9,628718376E0	1,093519926E0	9,690997047E0
7,471153140E-1	9,571290761E-2	9,631111145E0	1,086341500E0	9,692657051E0
7,483112520E-1	9,571290761E-2	9,631111145E0	1,069591761E0	9,690794053E0
7,495072420E-1	1,124626622E-1	9,631111145E0	1,055234790E0	9,689399889E0
7,507032310E-1	1,244267747E-1	9,635896683E0	1,060020447E0	9,694824921E0
7,518991690E-1	1,220339537E-1	9,640682220E0	1,071984529E0	9,700865775E0
7,530951580E-1	1,292124242E-1	9,638289452E0	1,083948612E0	9,699910515E0
7,542910960E-1	1,339980662E-1	9,635896683E0	1,103091240E0	9,699756216E0
7,554870850E-1	1,292124242E-1	9,638289452E0	1,124626637E0	9,704540405E0
7,566830230E-1	1,196411327E-1	9,647860527E0	1,138983607E0	9,715596246E0
7,578790120E-1	1,076770201E-1	9,655039787E0	1,153340459E0	9,724277960E0
7,590749500E-1	1,004985496E-1	9,662218094E0	1,167697430E0	9,733040416E0
7,602709390E-1	1,028913707E-1	9,662218094E0	1,172483087E0	9,733640723E0
7,614669290E-1	1,124626622E-1	9,667003632E0	1,179661512E0	9,739363857E0
7,626628670E-1	1,076770201E-1	9,676574707E0	1,201196909E0	9,751439197E0
7,638588560E-1	1,028913707E-1	9,678967476E0	1,234696507E0	9,757944123E0
7,650547940E-1	9,571290761E-2	9,676574707E0	1,268195987E0	9,759794059E0
7,662507830E-1	8,853443712E-2	9,664610863E0	1,284945726E0	9,750057794E0
7,674467730E-1	8,614161611E-2	9,667003632E0	1,294517040E0	9,753673870E0
7,686427100E-1	9,092725813E-2	9,690931320E0	1,320838094E0	9,780952453E0
7,698387000E-1	9,810572863E-2	9,700503349E0	1,344766378E0	9,793762636E0
7,710346370E-1	1,004985496E-1	9,710074425E0	1,363908887E0	9,805911112E0
7,722306270E-1	9,571290761E-2	9,724431038E0	1,373480201E0	9,821413739E0
7,734265640E-1	9,332008660E-2	9,726823807E0	1,373480201E0	9,823759864E0
7,746225540E-1	9,092725813E-2	9,722038269E0	1,366301775E0	9,817997576E0
7,758184920E-1	7,896314561E-2	9,712467194E0	1,359123230E0	9,807419137E0
7,770144810E-1	7,657032460E-2	9,702896118E0	1,354337573E0	9,797259125E0
7,782104710E-1	9,571290761E-2	9,705288887E0	1,344766378E0	9,798478961E0
7,794064080E-1	1,052841991E-1	9,714859962E0	1,332802176E0	9,806423940E0
7,806023980E-1	9,092725813E-2	9,719645500E0	1,323230863E0	9,809725599E0
7,817983350E-1	7,896314561E-2	9,719645500E0	1,316052437E0	9,808656271E0
7,829943250E-1	9,092725813E-2	9,731609344E0	1,311266780E0	9,819974988E0
7,841902620E-1	1,076770201E-1	9,738788605E0	1,306481123E0	9,826621533E0
7,853862520E-1	1,172483116E-1	9,734002113E0	1,294517040E0	9,820403183E0
7,865821890E-1	1,220339537E-1	9,722038269E0	1,275374413E0	9,806095058E0
7,877781790E-1	1,220339537E-1	9,712467194E0	1,258624673E0	9,794439613E0
7,889741690E-1	1,196411327E-1	9,717252731E0	1,249053478E0	9,797930865E0
7,901701060E-1	1,100698411E-1	9,731609344E0	1,246660590E0	9,811753076E0
7,913660960E-1	1,052841991E-1	9,738788605E0	1,241874933E0	9,818214787E0
7,925620330E-1	1,004985496E-1	9,734002113E0	1,244267821E0	9,813719963E0
7,937580230E-1	9,810572863E-2	9,726823807E0	1,244267821E0	9,806575779E0
7,949539600E-1	1,052841991E-1	9,717252731E0	1,239482164E0	9,796550487E0
7,961499500E-1	1,148554832E-1	9,719645500E0	1,239482164E0	9,799031405E0
7,973458870E-1	1,172483116E-1	9,724431038E0	1,244267821E0	9,804412710E0
7,985418770E-1	1,220339537E-1	9,726823807E0	1,249053478E0	9,807452689E0
7,997378670E-1	1,316052526E-1	9,722038269E0	1,251446247E0	9,803135506E0
8,009338040E-1	1,435693651E-1	9,714859962E0	1,256231904E0	9,796797173E0
8,021297940E-1	1,483550072E-1	9,705288887E0	1,253839016E0	9,787070750E0
8,033257310E-1	1,555334777E-1	9,693324089E0	1,253839016E0	9,775317634E0
8,045217210E-1	1,746760458E-1	9,671789169E0	1,261017561E0	9,755213106E0
8,057177100E-1	1,890329868E-1	9,655039787E0	1,268195987E0	9,739807381E0
8,069136480E-1	1,914258152E-1	9,640682220E0	1,287338614E0	9,728136421E0
8,081096370E-1	1,938186288E-1	9,616754532E0	1,306481123E0	9,707029737E0
8,093055750E-1	2,129612118E-1	9,597611427E0	1,328016520E0	9,691394402E0
8,105015640E-1	2,368894368E-1	9,576076508E0	1,363908887E0	9,675619119E0
8,116975020E-1	2,608176768E-1	9,559326172E0	1,395015597E0	9,664099091E0
8,128934920E-1	2,751746178E-1	9,544969559E0	1,421336651E0	9,654137083E0
8,140894290E-1	2,727817893E-1	9,528220177E0	1,459621787E0	9,643230029E0
8,152854190E-1	2,799602449E-1	9,504291534E0	1,493121386E0	9,624933599E0
8,164814080E-1	2,991028428E-1	9,477970123E0	1,519442320E0	9,603649574E0
8,176773460E-1	3,062812984E-1	9,458827972E0	1,545763373E0	9,589192836E0
8,188733350E-1	3,086741269E-1	9,451649666E0	1,576870084E0	9,587256145E0
8,200692730E-1	3,349951804E-1	9,446864128E0	1,596012712E0	9,586590645E0
8,212652620E-1	3,565305769E-1	9,446864128E0	1,615155339E0	9,590572594E0
8,224612000E-1	3,661018610E-1	9,446864128E0	1,634297848E0	9,594175414E0
8,236571890E-1	3,637090325E-1	9,446864128E0	1,643869162E0	9,595719459E0
8,248531790E-1	3,684946895E-1	9,444471359E0	1,648654819E0	9,594367634E0
8,260491170E-1	3,708875179E-1	9,444471359E0	1,646261930E0	9,594048945E0
8,272451060E-1	3,637090325E-1	9,454042435E0	1,643869162E0	9,602786493E0
8,284410440E-1	3,589234054E-1	9,461220741E0	1,653440475E0	9,611315692E0
8,296370330E-1	3,589234054E-1	9,461220741E0	1,665404558E0	9,613381105E0
8,308329710E-1	3,661018610E-1	9,466006279E0	1,660618901E0	9,617534018E0
8,320289600E-1	3,852444589E-1	9,451649666E0	1,663011789E0	9,604566774E0
8,332248980E-1	3,972085714E-1	9,434899330E0	1,667797327E0	9,589402898E0
8,344208870E-1	4,019941986E-1	9,434899330E0	1,670190215E0	9,590018773E0
8,356168770E-1	3,900300860E-1	9,442078590E0	1,677368641E0	9,597840233E0
8,368128140E-1	3,684946895E-1	9,446864128E0	1,677368641E0	9,601697545E0
8,380088040E-1	3,517449200E-1	9,451649666E0	1,672582984E0	9,604943505E0
8,392047420E-1	3,373879790E-1	9,458827972E0	1,672582984E0	9,611492657E0
8,404007310E-1	3,206382394E-1	9,470791817E0	1,674975872E0	9,623110240E0
8,415966690E-1	3,062812984E-1	9,482755661E0	1,672582984E0	9,634002128E0
8,427926580E-1	2,919243574E-1	9,494720459E0	1,663011789E0	9,643678999E0
8,439886480E-1	2,775674164E-1	9,504291534E0	1,648654819E0	9,650215746E0
8,451845850E-1	2,703889608E-1	9,518648148E0	1,631905079E0	9,661308759E0
8,463805750E-1	2,703889608E-1	9,533005714E0	1,615155339E0	9,672643636E0
8,475765120E-1	2,679961324E-1	9,544969559E0	1,607976794E0	9,683173817E0
8,487725020E-1	2,632105052E-1	9,556933403E0	1,600798368E0	9,693647985E0
8,499684390E-1	2,536391914E-1	9,571290970E0	1,588834286E0	9,705582829E0
8,511644290E-1	2,344966233E-1	9,578469276E0	1,579262972E0	9,710619645E0
8,523604190E-1	2,129612118E-1	9,585647583E0	1,564906001E0	9,714881515E0
8,535563560E-1	1,986042857E-1	9,602396965E0	1,550549030E0	9,728806372E0
8,547523460E-1	1,866401732E-1	9,619147301E0	1,550549030E0	9,745102957E0
8,559482830E-1	1,651047617E-1	9,635896683E0	1,545763373E0	9,760489172E0
8,571442730E-1	1,531406492E-1	9,643074989E0	1,531406522E0	9,765119213E0
8,583402100E-1	1,483550072E-1	9,645467758E0	1,517049551E0	9,765167527E0
8,595362000E-1	1,411765367E-1	9,650253296E0	1,505085468E0	9,767937436E0
8,607321370E-1	1,196411327E-1	9,662218094E0	1,490728498E0	9,777271805E0
8,619281270E-1	1,028913707E-1	9,667003632E0	1,483550072E0	9,780719128E0
8,631241170E-1	9,571290761E-2	9,662218094E0	1,476371527E0	9,774829530E0
8,643200540E-1	8,374879509E-2	9,659825325E0	1,457229018E0	9,769480825E0
8,655160440E-1	7,657032460E-2	9,652647018E0	1,438086390E0	9,759485127E0
8,667119810E-1	7,417750359E-2	9,667003632E0	1,426122308E0	9,771913137E0
8,679079710E-1	7,417750359E-2	9,674181938E0	1,423729420E0	9,778665754E0
8,691039080E-1	6,939185411E-2	9,669396400E0	1,423729420E0	9,773896226E0
8,702998980E-1	5,264209956E-2	9,671789169E0	1,430907965E0	9,777206888E0
8,714958350E-1	5,024927482E-2	9,669396400E0	1,442872047E0	9,776585881E0
8,726918250E-1	4,307080805E-2	9,667003632E0	1,450050473E0	9,775247346E0
8,738878140E-1	1,196411345E-2	9,669396400E0	1,450050473E0	9,777526081E0
8,750837520E-1	-9,571290575E-3	9,674181938E0	1,454836130E0	9,782966623E0
8,762797420E-1	-3,110669367E-2	9,676574707E0	1,464407444E0	9,786805140E0
8,774756790E-1	-5,264209956E-2	9,674181938E0	1,471585870E0	9,785608430E0
8,786716690E-1	-6,699903309E-2	9,674181938E0	1,471585870E0	9,785696195E0
8,798676060E-1	-7,657032460E-2	9,683753014E0	1,464407444E0	9,794152572E0
8,810635960E-1	-9,810572863E-2	9,695717812E0	1,457229018E0	9,805105049E0
8,822595850E-1	-1,268195957E-1	9,700503349E0	1,454836130E0	9,809811242E0
8,834555230E-1	-1,531406492E-1	9,707681656E0	1,452443361E0	9,816930626E0
8,846515120E-1	-1,794617027E-1	9,714859962E0	1,445264935E0	9,823415970E0
8,858474500E-1	-2,057827413E-1	9,717252731E0	1,423729420E0	9,823153905E0
8,870434390E-1	-2,225325108E-1	9,724431038E0	1,406979680E0	9,828207952E0
8,882393770E-1	-2,321037948E-1	9,731609344E0	1,387837172E0	9,832811634E0
8,894353670E-1	-2,536391914E-1	9,743574142E0	1,363908887E0	9,841840141E0
8,906313560E-1	-2,751746178E-1	9,750752449E0	1,351944804E0	9,847875362E0
8,918272940E-1	-2,871387303E-1	9,750752449E0	1,335195065E0	9,845931537E0
8,930232830E-1	-2,943171859E-1	9,750752449E0	1,308874011E0	9,842608755E0
8,942192210E-1	-3,134597540E-1	9,767501831E0	1,282552958E0	9,856332539E0
8,954152100E-1	-3,278166950E-1	9,786644936E0	1,261017561E0	9,872995907E0
8,966111480E-1	-3,206382394E-1	9,781859398E0	1,239482164E0	9,865287537E0
8,978071370E-1	-2,991028428E-1	9,765109062E0	1,215553880E0	9,845018473E0
8,990031270E-1	-2,751746178E-1	9,755537987E0	1,186840057E0	9,831318925E0
9,001990640E-1	-2,608176768E-1	9,750752449E0	1,153340459E0	9,822188829E0
9,013950540E-1	-2,536391914E-1	9,748359680E0	1,129412293E0	9,816843761E0
9,025909920E-1	-2,464607358E-1	9,755537987E0	1,107876897E0	9,821336748E0
9,037869810E-1	-2,440679073E-1	9,774680138E0	1,081555843E0	9,837362654E0
9,049829190E-1	-2,297109663E-1	9,784252167E0	1,052842021E0	9,843415764E0
9,061789080E-1	-2,057827413E-1	9,789037704E0	1,026520967E0	9,844864195E0
9,073748460E-1	-1,962114573E-1	9,820143700E0	9,954141974E-1	9,872414631E0
9,085708350E-1	-1,914258152E-1	9,858428955E0	9,619147182E-1	9,907095701E0
9,097668250E-1	-1,794617027E-1	9,877572060E0	9,379864931E-1	9,923631138E0
9,109627620E-1	-1,770688742E-1	9,894321442E0	9,236295223E-1	9,938915518E0
9,121587520E-1	-1,698904037E-1	9,903892517E0	9,092726111E-1	9,946995849E0
9,133546890E-1	-1,459621787E-1	9,911071777E0	8,901300430E-1	9,952033974E0
9,145506790E-1	-1,363908947E-1	9,915857315E0	8,709874153E-1	9,954971012E0
9,157466170E-1	-1,363908947E-1	9,923035622E0	8,566305041E-1	9,960876179E0
9,169426060E-1	-1,292124242E-1	9,932606697E0	8,494520187E-1	9,969701118E0
9,181385960E-1	-1,172483116E-1	9,934999466E0	8,422735929E-1	9,971328214E0
9,193345330E-1	-1,004985496E-1	9,927821159E0	8,327022791E-1	9,963188547E0
9,205305230E-1	-8,374879509E-2	9,918250084E0	8,255237937E-1	9,952898478E0
9,217264600E-1	-7,657032460E-2	9,903892517E0	8,279166222E-1	9,938732109E0
9,229224500E-1	-6,460621208E-2	9,896714211E0	8,350951076E-1	9,932094943E0
9,241183870E-1	-3,828516230E-2	9,894321442E0	8,422735929E-1	9,930180630E0
9,253143770E-1	-2,392822690E-2	9,896714211E0	8,494520187E-1	9,933131100E0
9,265103140E-1	-1,914258115E-2	9,911071777E0	8,494520187E-1	9,947425745E0
9,277063040E-1	-1,196411345E-2	9,903892517E0	8,494520187E-1	9,940261509E0
9,289022940E-1	-4,785645287E-3	9,891928673E0	8,542376757E-1	9,928746032E0
9,300982310E-1	4,785645287E-3	9,896714211E0	8,662018180E-1	9,934549847E0
9,312942210E-1	7,178467698E-3	9,899106979E0	8,829515576E-1	9,938409026E0
9,324901580E-1	4,785645287E-3	9,896714211E0	9,044869542E-1	9,937961145E0
9,336861480E-1	1,435693540E-2	9,884750366E0	9,140582681E-1	9,926932983E0
9,348820850E-1	2,632104978E-2	9,877572060E0	9,260223508E-1	9,920919311E0
9,360780750E-1	3,828516230E-2	9,879964828E0	9,523434043E-1	9,925831387E0
9,372740640E-1	4,307080805E-2	9,884750366E0	9,667003751E-1	9,932001536E0
9,384700020E-1	4,067798331E-2	9,889535904E0	9,810572863E-1	9,938161223E0
9,396659920E-1	3,589234129E-2	9,887143135E0	9,978070259E-1	9,937429572E0
9,408619290E-1	2,632104978E-2	9,879964828E0	1,014556766E0	9,931954654E0
9,420579190E-1	2,153540403E-2	9,875179291E0	1,036092162E0	9,929406667E0
9,432538560E-1	1,435693540E-2	9,889535904E0	1,045663476E0	9,944673882E0
9,444498460E-1	-2,392822644E-3	9,901499748E0	1,057627559E0	9,957825016E0
9,456458350E-1	-4,785645287E-3	9,908679008E0	1,071984529E0	9,966498554E0
9,468417730E-1	-1,196411345E-2	9,925428391E0	1,076770186E0	9,983671965E0
9,480377620E-1	-3,589234129E-2	9,932606697E0	1,083948612E0	9,991641940E0
9,492337000E-1	-5,742774159E-2	9,930213928E0	1,093519926E0	9,990407020E0
9,504296890E-1	-7,657032460E-2	9,920642853E0	1,100698471E0	9,981811196E0
9,516256270E-1	-9,092725813E-2	9,908679008E0	1,103091240E0	9,970305800E0
9,528216170E-1	-9,810572863E-2	9,901499748E0	1,107876897E0	9,963770030E0
9,540175540E-1	-9,810572863E-2	9,896714211E0	1,129412293E0	9,961433081E0
9,552135440E-1	-1,076770201E-1	9,894321442E0	1,150947690E0	9,961619934E0
9,564095330E-1	-1,172483116E-1	9,875179291E0	1,155733347E0	9,943270728E0
9,576054710E-1	-1,172483116E-1	9,858428955E0	1,162911773E0	9,927473617E0
9,588014600E-1	-1,124626622E-1	9,865608215E0	1,182054400E0	9,936806626E0
9,599973980E-1	-1,172483116E-1	9,868000984E0	1,198804140E0	9,941243481E0
9,611933870E-1	-1,268195957E-1	9,851250648E0	1,201196909E0	9,925023756E0
9,623893250E-1	-1,220339537E-1	9,846465111E0	1,201196909E0	9,920213782E0
9,635853140E-1	-1,100698411E-1	9,863214493E0	1,196411371E0	9,936121762E0
9,647813040E-1	-1,004985496E-1	9,870393753E0	1,191625714E0	9,942572335E0
9,659772420E-1	-1,004985496E-1	9,872786522E0	1,184447169E0	9,944090143E0
9,671732310E-1	-1,052841991E-1	9,894321442E0	1,167697430E0	9,963543488E0
9,683691690E-1	-1,076770201E-1	9,906285286E0	1,155733347E0	9,974056450E0
9,695651580E-1	-1,100698411E-1	9,915857315E0	1,150947690E0	9,983036725E0
9,707610960E-1	-1,028913707E-1	9,939785004E0	1,141376376E0	1,000563104E1
9,719570850E-1	-1,076770201E-1	9,946963310E0	1,131805062E0	1,001172593E1
9,731530750E-1	-1,172483116E-1	9,937392235E0	1,117448211E0	1,000071008E1
9,743490120E-1	-1,244267747E-1	9,930213928E0	1,107876897E0	9,992598356E0
9,755450020E-1	-1,363908947E-1	9,923035622E0	1,098305583E0	9,984563765E0
9,767409390E-1	-1,244267747E-1	9,920642853E0	1,093519926E0	9,981504018E0
9,779369290E-1	-1,124626622E-1	9,915857315E0	1,086341500E0	9,975821370E0
9,791328670E-1	-1,124626622E-1	9,903892517E0	1,064806104E0	9,961603630E0
9,803288560E-1	-1,100698411E-1	9,903892517E0	1,055234790E0	9,960558359E0
9,815247940E-1	-1,028913707E-1	9,899106979E0	1,055234790E0	9,955723283E0
9,827207830E-1	-8,374879509E-2	9,889535904E0	1,052842021E0	9,945773503E0
9,839167730E-1	-6,699903309E-2	9,879964828E0	1,050449133E0	9,935876271E0
9,851127100E-1	-5,742774159E-2	9,863214493E0	1,045663476E0	9,918654656E0
9,863087000E-1	-4,546362907E-2	9,856036186E0	1,043270707E0	9,911202249E0
9,875046370E-1	-3,589234129E-2	9,860821724E0	1,038485050E0	9,915419534E0
9,887006270E-1	-2,392822690E-2	9,860821724E0	1,033699393E0	9,914883361E0
9,898965640E-1	0,000000000E0	9,853643417E0	1,028913736E0	9,907217171E0
9,910925540E-1	1,196411345E-2	9,851250648E0	1,024128079E0	9,904348580E0
9,922885440E-1	1,914258115E-2	9,856036186E0	1,024128079E0	9,909119742E0
9,934844810E-1	2,871387079E-2	9,865608215E0	1,028913736E0	9,919158907E0
9,946804710E-1	3,828516230E-2	9,872786522E0	1,036092162E0	9,927077436E0
9,958764080E-1	4,546362907E-2	9,863214493E0	1,048056364E0	9,918845155E0
9,970723980E-1	3,828516230E-2	9,851250648E0	1,057627559E0	9,907935262E0
9,982683350E-1	3,110669367E-2	9,846465111E0	1,062413216E0	9,903664203E0
9,994643250E-1	3,349951655E-2	9,844072342E0	1,062413216E0	9,901293064E0
1,000660314E0	3,349951655E-2	9,836894035E0	1,064806104E0	9,894413500E0
1,001856252E0	3,828516230E-2	9,827322960E0	1,076770186E0	9,886211425E0
1,003052242E0	5,503492057E-2	9,820143700E0	1,083948612E0	9,879939054E0
1,004248179E0	6,221338734E-2	9,810572624E0	1,086341500E0	9,870731664E0
1,005444169E0	6,939185411E-2	9,803394318E0	1,098305583E0	9,864969870E0
1,006640106E0	8,135596663E-2	9,796216011E0	1,117448211E0	9,860078977E0
1,007836096E0	9,332008660E-2	9,769894600E0	1,146162033E0	9,837338895E0
1,009032033E0	1,100698411E-1	9,743574142E0	1,165304661E0	9,813627637E0
1,010228023E0	1,220339537E-1	9,731609344E0	1,184447169E0	9,804184199E0
1,011424012E0	1,220339537E-1	9,724431038E0	1,208375454E0	9,799980742E0
1,012619950E0	1,316052526E-1	9,714859962E0	1,237089276E0	9,794192867E0
1,013815939E0	1,483550072E-1	9,702896118E0	1,268195987E0	9,786548081E0
1,015011877E0	1,579262912E-1	9,690931320E0	1,304088354E0	9,779557096E0
1,016207867E0	1,651047617E-1	9,681360245E0	1,337587833E0	9,774719279E0
1,017403804E0	1,674975902E-1	9,686145782E0	1,361516118E0	9,782801322E0
1,018599794E0	1,746760458E-1	9,690931320E0	1,397408366E0	9,792722385E0
1,019795783E0	1,794617027E-1	9,686145782E0	1,442872047E0	9,794667241E0
1,020991721E0	1,746760458E-1	9,671789169E0	1,476371527E0	9,785381461E0
1,022187710E0	1,674975902E-1	9,645467758E0	1,502692580E0	9,763257075E0
1,023383648E0	1,579262912E-1	9,626325607E0	1,540977836E0	9,750164004E0
1,024579637E0	1,698904037E-1	9,604789734E0	1,581655741E0	9,735629587E0
1,025775575E0	1,842473447E-1	9,585647583E0	1,622333765E0	9,723710892E0
1,026971564E0	1,890329868E-1	9,583254814E0	1,655833244E0	9,727090523E0
1,028167554E0	1,890329868E-1	9,585647583E0	1,691725612E0	9,735620607E0
1,029363492E0	1,890329868E-1	9,573683739E0	1,722832322E0	9,729301363E0
1,030559481E0	1,794617027E-1	9,561718941E0	1,753939033E0	9,722909942E0
1,031755419E0	1,698904037E-1	9,566504478E0	1,773081541E0	9,730914080E0
1,032951408E0	1,770688742E-1	9,559326172E0	1,770688772E0	9,723549196E0
1,034147346E0	1,890329868E-1	9,552147865E0	1,763510346E0	9,715412037E0
1,035343335E0	2,033899277E-1	9,549755096E0	1,761117458E0	9,712915348E0
1,036539325E0	2,057827413E-1	9,547362328E0	1,768295884E0	9,711917642E0
1,037735262E0	2,129612118E-1	9,544969559E0	1,761117458E0	9,708415476E0
1,038931252E0	2,273181528E-1	9,542576790E0	1,753939033E0	9,705088741E0
1,040127189E0	2,344966233E-1	9,544969559E0	1,746760488E0	9,706317775E0
1,041323179E0	2,392822653E-1	9,554540634E0	1,732403636E0	9,713275714E0
1,042519117E0	2,512463629E-1	9,549755096E0	1,727617979E0	9,708017873E0
1,043715106E0	2,775674164E-1	9,549755096E0	1,713261008E0	9,706190260E0
1,044911096E0	2,943171859E-1	9,559326172E0	1,694118381E0	9,712742998E0
1,046107033E0	2,895315289E-1	9,566504478E0	1,682154298E0	9,717586096E0
1,047303023E0	2,847459018E-1	9,580862045E0	1,672582984E0	9,729929681E0
1,048498960E0	2,823530734E-1	9,590433121E0	1,655833244E0	9,736422055E0
1,049694950E0	2,919243574E-1	9,590433121E0	1,629512191E0	9,732262700E0
1,050890887E0	2,967100143E-1	9,590433121E0	1,603191137E0	9,728035058E0
1,052086877E0	2,847459018E-1	9,597611427E0	1,588834286E0	9,732400512E0
1,053282867E0	2,799602449E-1	9,597611427E0	1,581655741E0	9,731092319E0
1,054478804E0	2,871387303E-1	9,600004196E0	1,572084427E0	9,732110699E0
1,055674794E0	2,799602449E-1	9,600004196E0	1,562513232E0	9,730360009E0
1,056870731E0	2,656033039E-1	9,600004196E0	1,548156261E0	9,727662283E0
1,058066721E0	2,560320199E-1	9,602396965E0	1,533799291E0	9,727493004E0
1,059262658E0	2,656033039E-1	9,595218658E0	1,526620865E0	9,719533810E0
1,060458648E0	2,679961324E-1	9,592825890E0	1,509871125E0	9,714619977E0
1,061654585E0	2,536391914E-1	9,592825890E0	1,481157184E0	9,709812974E0
1,062850575E0	2,512463629E-1	9,590433121E0	1,469193101E0	9,705568533E0
1,064046564E0	2,488535494E-1	9,583254814E0	1,459621787E0	9,696968427E0
1,065242502E0	2,464607358E-1	9,585647583E0	1,452443361E0	9,698194378E0
1,066438492E0	2,512463629E-1	9,595218658E0	1,438086390E0	9,705639510E0
1,067634429E0	2,632105052E-1	9,592825890E0	1,416550994E0	9,700422931E0
1,068830419E0	2,703889608E-1	9,595218658E0	1,402194023E0	9,700900957E0
1,070026356E0	2,656033039E-1	9,607182503E0	1,385444283E0	9,710198588E0
1,071222346E0	2,560320199E-1	9,614361763E0	1,371087432E0	9,715008248E0
1,072418335E0	2,464607358E-1	9,621540070E0	1,349551916E0	9,718851094E0
1,073614273E0	2,392822653E-1	9,623932838E0	1,330409408E0	9,718401539E0
1,074810262E0	2,225325108E-1	9,626325607E0	1,313659668E0	9,718094831E0
1,076006200E0	2,105683982E-1	9,631111145E0	1,287338614E0	9,719047363E0
1,077202189E0	2,057827413E-1	9,633503914E0	1,263410330E0	9,718176262E0
1,078398127E0	1,914258152E-1	9,631111145E0	1,241874933E0	9,712733862E0
1,079594117E0	1,914258152E-1	9,633503914E0	1,215553880E0	9,711777012E0
1,080790054E0	1,914258152E-1	9,645467758E0	1,189232826E0	9,720389233E0
1,081986044E0	1,962114573E-1	9,657432556E0	1,177268744E0	9,730902538E0
1,083182033E0	2,009970993E-1	9,678967476E0	1,170090318E0	9,751508734E0
1,084377971E0	1,890329868E-1	9,690931320E0	1,155733347E0	9,761434469E0
1,085573960E0	1,914258152E-1	9,698110580E0	1,148554921E0	9,767761826E0
1,086769898E0	1,986042857E-1	9,712467194E0	1,136590719E0	9,780761786E0
1,087965887E0	1,866401732E-1	9,712467194E0	1,127019525E0	9,779418518E0
1,089161825E0	1,770688742E-1	9,712467194E0	1,110269666E0	9,777324333E0
1,090357814E0	1,818545163E-1	9,714859962E0	1,088734269E0	9,777367614E0
1,091553752E0	1,794617027E-1	9,710074425E0	1,076770186E0	9,771242801E0
1,092749742E0	1,746760458E-1	9,707681656E0	1,071984529E0	9,768251926E0
1,093945731E0	1,651047617E-1	9,712467194E0	1,076770186E0	9,773367516E0
1,095141669E0	1,483550072E-1	9,712467194E0	1,081555843E0	9,773627333E0
1,096337658E0	1,411765367E-1	9,702896118E0	1,081555843E0	9,764009778E0
1,097533596E0	1,411765367E-1	9,690931320E0	1,086341500E0	9,752651871E0
1,098729585E0	1,339980662E-1	9,676574707E0	1,086341500E0	9,738284828E0
1,099925575E0	1,292124242E-1	9,676574707E0	1,093519926E0	9,739023552E0
1,101121512E0	1,244267747E-1	9,683753014E0	1,105484009E0	9,747443221E0
1,102317502E0	1,052841991E-1	9,688538551E0	1,107876897E0	9,752243600E0
1,103513439E0	9,571290761E-2	9,698110580E0	1,105484009E0	9,761383339E0
1,104709429E0	9,810572863E-2	9,700503349E0	1,100698471E0	9,763243677E0
1,105905367E0	9,092725813E-2	9,695717812E0	1,095912814E0	9,757880740E0
1,107101356E0	8,614161611E-2	9,702896118E0	1,079162955E0	9,763104329E0
1,108297294E0	8,853443712E-2	9,724431038E0	1,069591761E0	9,783477086E0
1,109493283E0	9,332008660E-2	9,736394882E0	1,079162955E0	9,796462965E0
1,110689273E0	1,004985496E-1	9,734002113E0	1,079162955E0	9,794155900E0
1,111885210E0	1,100698411E-1	9,729216576E0	1,062413216E0	9,787670427E0
1,113081200E0	1,268195957E-1	9,719645500E0	1,043270707E0	9,776298156E0
1,114277137E0	1,363908947E-1	9,722038269E0	1,033699393E0	9,777789373E0
1,115473127E0	1,411765367E-1	9,724431038E0	1,024128079E0	9,779229425E0
1,116669064E0	1,531406492E-1	9,724431038E0	1,007378340E0	9,777669568E0
1,117865054E0	1,627119333E-1	9,731609344E0	9,954141974E-1	9,783738806E0
1,119061044E0	1,674975902E-1	9,714859962E0	9,930213690E-1	9,766916144E0
1,120256981E0	1,651047617E-1	9,693324089E0	9,858429432E-1	9,744725639E0
1,121452971E0	1,651047617E-1	9,690931320E0	9,786644578E-1	9,741621711E0
1,122648908E0	1,842473447E-1	9,690931320E0	9,690931439E-1	9,741008082E0
1,123844898E0	2,105683982E-1	9,690931320E0	9,667003751E-1	9,741303738E0
1,125040835E0	2,392822653E-1	9,683753014E0	9,667003751E-1	9,734826041E0
1,126236825E0	2,512463629E-1	9,671789169E0	9,619147182E-1	9,722752203E0
1,127432814E0	2,488535494E-1	9,667003632E0	9,595218897E-1	9,717693634E0
1,128628752E0	2,488535494E-1	9,662218094E0	9,571290612E-1	9,712696980E0
1,129824742E0	2,560320199E-1	9,650253296E0	9,499505758E-1	9,700275623E0
1,131020679E0	2,608176768E-1	9,643074989E0	9,475577474E-1	9,693027741E0
1,132216669E0	2,488535494E-1	9,640682220E0	9,475577474E-1	9,690332680E0
1,133412606E0	2,249253243E-1	9,643074989E0	9,403793216E-1	9,691429199E0
1,134608596E0	2,105683982E-1	9,657432556E0	9,355936646E-1	9,704930609E0
1,135804533E0	2,009970993E-1	9,674181938E0	9,332008362E-1	9,721165558E0
1,137000523E0	2,009970993E-1	9,683753014E0	9,427721500E-1	9,731613000E0
1,138196512E0	1,938186288E-1	9,702896118E0	9,499505758E-1	9,751213506E0
1,139392450E0	1,698904037E-1	9,726823807E0	9,547362328E-1	9,775044010E0
1,140588439E0	1,627119333E-1	9,741181374E0	9,571290612E-1	9,789442567E0
1,141784377E0	1,651047617E-1	9,743574142E0	9,571290612E-1	9,791863596E0
1,142980367E0	1,603191197E-1	9,743574142E0	9,619147182E-1	9,792253020E0
1,144176304E0	1,555334777E-1	9,748359680E0	9,714859724E-1	9,797882022E0
1,145372294E0	1,651047617E-1	9,743574142E0	9,810572863E-1	9,794231468E0
1,146568231E0	1,842473447E-1	9,734002113E0	9,906286001E-1	9,786014983E0
1,147764221E0	1,842473447E-1	9,729216576E0	1,002592683E0	9,782473836E0
1,148960210E0	1,770688742E-1	9,729216576E0	1,012163997E0	9,783326863E0
1,150156148E0	1,722832322E-1	9,731609344E0	1,028913736E0	9,787367645E0
1,151352137E0	1,770688742E-1	9,724431038E0	1,050449133E0	9,782604754E0
1,152548075E0	1,818545163E-1	9,705288887E0	1,062413216E0	9,764959052E0
1,153744064E0	1,651047617E-1	9,698110580E0	1,076770186E0	9,759100494E0
1,154940002E0	1,531406492E-1	9,702896118E0	1,098305583E0	9,766059609E0
1,156135992E0	1,483550072E-1	9,707681656E0	1,122233868E0	9,773459019E0
1,157331981E0	1,387837082E-1	9,702896118E0	1,134197950E0	9,769946724E0
1,158527919E0	1,268195957E-1	9,698110580E0	1,158126116E0	9,767839482E0
1,159723908E0	1,100698411E-1	9,705288887E0	1,186840057E0	9,778207252E0
1,160919846E0	1,004985496E-1	9,719645500E0	1,203589797E0	9,794398246E0
1,162115835E0	9,571290761E-2	9,722038269E0	1,213161111E0	9,797905335E0
1,163311773E0	9,810572863E-2	9,722038269E0	1,225125194E0	9,799417563E0
1,164507762E0	1,076770201E-1	9,722038269E0	1,244267821E0	9,801929650E0
1,165703752E0	1,004985496E-1	9,722038269E0	1,258624673E0	9,803686252E0
1,166899689E0	8,853443712E-2	9,707681656E0	1,268195987E0	9,790569061E0
1,168095679E0	8,614161611E-2	9,698110580E0	1,282552958E0	9,782929587E0
1,169291617E0	7,417750359E-2	9,693324089E0	1,301695466E0	9,780615793E0
1,170487606E0	7,657032460E-2	9,669396400E0	1,306481123E0	9,757560284E0
1,171683544E0	9,571290761E-2	9,657432556E0	1,304088354E0	9,745553395E0
1,172879533E0	1,076770201E-1	9,657432556E0	1,299302697E0	9,745039016E0
1,174075523E0	1,076770201E-1	9,655039787E0	1,306481123E0	9,743627690E0
1,175271460E0	1,028913707E-1	9,647860527E0	1,316052437E0	9,737750942E0
1,176467450E0	1,148554832E-1	9,640682220E0	1,328016520E0	9,732398129E0
1,177663387E0	1,339980662E-1	9,640682220E0	1,339980721E0	9,734282587E0
1,178859377E0	1,411765367E-1	9,638289452E0	1,347159147E0	9,733005298E0
1,180055314E0	1,292124242E-1	9,623932838E0	1,356730461E0	9,719953532E0
1,181251304E0	1,172483116E-1	9,609575272E0	1,363908887E0	9,706592168E0
1,182447242E0	1,244267747E-1	9,592825890E0	1,371087432E0	9,691113007E0
1,183643231E0	1,387837082E-1	9,583254814E0	1,383051515E0	9,683535782E0
1,184839221E0	1,339980662E-1	9,583254814E0	1,392622828E0	9,684840043E0
1,186035158E0	1,244267747E-1	9,583254814E0	1,414158225E0	9,687832489E0
1,187231148E0	1,316052526E-1	9,576076508E0	1,435693622E0	9,683995942E0
1,188427085E0	1,316052526E-1	9,571290970E0	1,442872047E0	9,680331116E0
1,189623075E0	1,292124242E-1	9,580862045E0	1,452443361E0	9,691192140E0
1,190819064E0	1,387837082E-1	9,595218658E0	1,462014675E0	9,706954668E0
1,192015002E0	1,603191197E-1	9,600004196E0	1,464407444E0	9,712377255E0
1,193210992E0	1,651047617E-1	9,590433121E0	1,462014675E0	9,702636443E0
1,194406929E0	1,674975902E-1	9,580862045E0	1,454836130E0	9,692137078E0
1,195602919E0	1,627119333E-1	9,583254814E0	1,447657704E0	9,693346215E0
1,196798856E0	1,579262912E-1	9,592825890E0	1,440479279E0	9,701661188E0
1,197994846E0	1,555334777E-1	9,592825890E0	1,435693622E0	9,700913121E0
1,199190783E0	1,651047617E-1	9,595218658E0	1,423729420E0	9,701674399E0
1,200386773E0	1,986042857E-1	9,600004196E0	1,392622828E0	9,702521454E0
1,201582762E0	2,153540403E-1	9,609575272E0	1,366301775E0	9,708609314E0
1,202778700E0	2,201396823E-1	9,616754532E0	1,342373490E0	9,712486592E0
1,203974689E0	2,440679073E-1	9,621540070E0	1,328016520E0	9,715823708E0
1,205170627E0	2,632105052E-1	9,626325607E0	1,318445325E0	9,719759387E0
1,206366617E0	2,608176768E-1	9,631111145E0	1,299302697E0	9,721857603E0
1,207562554E0	2,512463629E-1	9,650253296E0	1,272981644E0	9,737093800E0
1,208758544E0	2,512463629E-1	9,671789169E0	1,244267821E0	9,754733870E0
1,209954481E0	2,488535494E-1	9,676574707E0	1,225125194E0	9,756995331E0
1,211150471E0	2,488535494E-1	9,674181938E0	1,210768223E0	9,752829536E0
1,212346460E0	2,560320199E-1	9,681360245E0	1,189232826E0	9,757487551E0
1,213542398E0	2,656033039E-1	9,693324089E0	1,162911773E0	9,766444635E0
1,214738387E0	2,656033039E-1	9,705288887E0	1,138983607E0	9,775503115E0
1,215934325E0	2,727817893E-1	9,712467194E0	1,119840980E0	9,780617195E0
1,217130314E0	2,751746178E-1	9,712467194E0	1,100698471E0	9,778510990E0
1,218326252E0	2,823530734E-1	9,705288887E0	1,079162955E0	9,769183606E0
1,219522242E0	2,919243574E-1	9,698110580E0	1,062413216E0	9,760496427E0
1,220718231E0	2,967100143E-1	9,695717812E0	1,048056364E0	9,756710658E0
1,221914169E0	3,014956415E-1	9,690931320E0	1,043270707E0	9,751587729E0
1,223110158E0	3,014956415E-1	9,690931320E0	1,043270707E0	9,751587729E0
1,224306096E0	3,086741269E-1	9,690931320E0	1,033699393E0	9,750792994E0
1,225502085E0	3,110669553E-1	9,683753014E0	1,036092162E0	9,743989021E0
1,226698023E0	2,991028428E-1	9,681360245E0	1,033699393E0	9,740982144E0
1,227894012E0	2,871387303E-1	9,674181938E0	1,019342422E0	9,731973274E0
1,229090002E0	2,727817893E-1	9,662218094E0	1,009771109E0	9,718667917E0
1,230285939E0	2,632105052E-1	9,657432556E0	1,002592683E0	9,712902524E0
1,231481929E0	2,679961324E-1	9,652647018E0	1,002592683E0	9,708275258E0
1,232677867E0	2,703889608E-1	9,655039787E0	9,978070259E-1	9,710227719E0
1,233873856E0	2,512463629E-1	9,662218094E0	9,858429432E-1	9,715630167E0
1,235069794E0	2,344966233E-1	9,667003632E0	9,762716293E-1	9,719004793E0
1,236265783E0	2,249253243E-1	9,671789169E0	9,667003751E-1	9,722582309E0
1,237461773E0	2,153540403E-1	9,671789169E0	9,667003751E-1	9,722365592E0
1,238657710E0	2,009970993E-1	9,674181938E0	9,667003751E-1	9,724438576E0
1,239853700E0	1,746760458E-1	9,678967476E0	9,595218897E-1	9,727980540E0
1,241049637E0	1,507478207E-1	9,683753014E0	9,523434043E-1	9,731636825E0
1,242245627E0	1,387837082E-1	9,695717812E0	9,355936646E-1	9,741742160E0
1,243441564E0	1,148554832E-1	9,698110580E0	9,188438654E-1	9,742218159E0
1,244637554E0	9,571290761E-2	9,700503349E0	9,044869542E-1	9,743049976E0
1,245833544E0	8,135596663E-2	9,722038269E0	9,092726111E-1	9,764805353E0
1,247029481E0	7,178468257E-2	9,757930756E0	9,140582681E-1	9,800911600E0
1,248225471E0	6,460621208E-2	9,772287369E0	9,140582681E-1	9,815155470E0
1,249421408E0	4,785645381E-2	9,774680138E0	9,236295223E-1	9,818337615E0
1,250617398E0	2,392822690E-2	9,784252167E0	9,284151793E-1	9,828230653E0
1,251813335E0	1,674975827E-2	9,796216011E0	9,355936646E-1	9,840806074E0
1,253009325E0	1,435693540E-2	9,801001549E0	9,451649189E-1	9,846480295E0
1,254205262E0	1,674975827E-2	9,801001549E0	9,547362328E-1	9,847407435E0
1,255401252E0	1,196411345E-2	9,798608780E0	9,571290612E-1	9,845251302E0
1,256597242E0	-4,785645287E-3	9,793823242E0	9,547362328E-1	9,840249889E0
1,257793179E0	-9,571290575E-3	9,786644936E0	9,547362328E-1	9,833108968E0
1,258989169E0	-7,178467698E-3	9,789037704E0	9,571290612E-1	9,835720957E0
1,260185106E0	-1,435693540E-2	9,791430473E0	9,547362328E-1	9,837877724E0
1,261381096E0	-1,674975827E-2	9,779465675E0	9,667003751E-1	9,827142976E0
1,262577033E0	-2,153540403E-2	9,767501831E0	9,906286001E-1	9,817632139E0
1,263773023E0	-1,674975827E-2	9,762716293E0	1,007378340E0	9,814566781E0
1,264969012E0	-1,196411345E-2	9,765109062E0	1,014556766E0	9,817679133E0
1,266164950E0	-1,674975827E-2	9,762716293E0	1,028913736E0	9,816800571E0
1,267360939E0	-9,571290575E-3	9,765109062E0	1,043270707E0	9,820685331E0
1,268556877E0	1,196411345E-2	9,767501831E0	1,057627559E0	9,824602344E0
1,269752867E0	3,589234129E-2	9,765109062E0	1,081555843E0	9,824887088E0
1,270948804E0	3,828516230E-2	9,779465675E0	1,110269666E0	9,842363201E0
1,272144794E0	3,589234129E-2	9,791430473E0	1,134197950E0	9,856967280E0
1,273340783E0	3,110669367E-2	9,786644936E0	1,167697430E0	9,856109984E0
1,274536721E0	3,828516230E-2	9,791430473E0	1,203589797E0	9,865201714E0
1,275732710E0	5,503492057E-2	9,805787086E0	1,222732425E0	9,881880581E0
1,276928648E0	6,460621208E-2	9,805787086E0	1,237089276E0	9,883725220E0
1,278124637E0	5,742774159E-2	9,803394318E0	1,253839016E0	9,883417950E0
1,279320575E0	5,024927482E-2	9,798608780E0	1,280160069E0	9,882007327E0
1,280516564E0	4,785645381E-2	9,796216011E0	1,289731383E0	9,880867645E0
1,281712502E0	5,024927482E-2	9,789037704E0	1,287338614E0	9,873450505E0
1,282908492E0	5,982056633E-2	9,769894600E0	1,289731383E0	9,854837697E0
1,284104481E0	6,699903309E-2	9,748359680E0	1,294517040E0	9,834163904E0
1,285300419E0	7,417750359E-2	9,738788605E0	1,289731383E0	9,824098576E0
1,286496408E0	7,896314561E-2	9,734002113E0	1,277767301E0	9,817826725E0
1,287692346E0	7,657032460E-2	9,729216576E0	1,261017561E0	9,810896161E0
1,288888335E0	8,374879509E-2	9,724431038E0	1,249053478E0	9,804677836E0
1,290084273E0	8,853443712E-2	9,731609344E0	1,249053478E0	9,811839449E0
1,291280262E0	9,332008660E-2	9,748359680E0	1,241874933E0	9,827587621E0
1,292476252E0	1,124626622E-1	9,757930756E0	1,227517962E0	9,835479695E0
1,293672189E0	1,316052526E-1	9,762716293E0	1,198804140E0	9,836924353E0
1,294868179E0	1,292124242E-1	9,777072906E0	1,170090318E0	9,847688146E0
1,296064117E0	1,244267747E-1	9,784252167E0	1,158126116E0	9,853340986E0
1,297260106E0	1,268195957E-1	9,781859398E0	1,150947690E0	9,850154165E0
1,298456044E0	1,292124242E-1	9,796216011E0	1,136590719E0	9,862777623E0
1,299652033E0	1,363908947E-1	9,801001549E0	1,119840980E0	9,865712222E0
1,300848023E0	1,531406492E-1	9,801001549E0	1,100698471E0	9,863803553E0
1,302043960E0	1,794617027E-1	9,801001549E0	1,074377418E0	9,861344974E0
1,303239950E0	1,962114573E-1	9,798608780E0	1,050449133E0	9,856707175E0
1,304435887E0	1,914258152E-1	9,798608780E0	1,036092162E0	9,855093345E0
1,305631877E0	1,890329868E-1	9,812965393E0	1,028913736E0	9,868570654E0
1,306827814E0	1,914258152E-1	9,829715729E0	1,016949654E0	9,884034690E0
1,308023804E0	1,962114573E-1	9,839286804E0	1,002592683E0	9,892181551E0
1,309219794E0	1,986042857E-1	9,848857880E0	9,930213690E-1	9,900784647E0
1,310415731E0	2,033899277E-1	9,846465111E0	9,858429432E-1	9,897784042E0
1,311611721E0	2,177468538E-1	9,836894035E0	9,714859724E-1	9,887147362E0
1,312807658E0	2,105683982E-1	9,829715729E0	9,595218897E-1	9,878680712E0
1,314003648E0	2,081755698E-1	9,817750931E0	9,427721500E-1	9,865109717E0
1,315199585E0	2,153540403E-1	9,805787086E0	9,212366939E-1	9,851320459E0
1,316395575E0	2,201396823E-1	9,810572624E0	9,068797827E-1	9,854858073E0
1,317591564E0	2,249253243E-1	9,820143700E0	8,973084688E-1	9,863618817E0
1,318787502E0	2,225325108E-1	9,822537422E0	8,949156404E-1	9,865730390E0
1,319983492E0	2,249253243E-1	9,817750931E0	8,877372146E-1	9,860370282E0
1,321179429E0	2,321037948E-1	9,810572624E0	8,853443861E-1	9,853174213E0
1,322375419E0	2,249253243E-1	9,808179855E0	8,853443861E-1	9,850625267E0
1,323571356E0	2,129612118E-1	9,810572624E0	8,853443861E-1	9,852741871E0
1,324767346E0	2,057827413E-1	9,805787086E0	8,901300430E-1	9,848255603E0
1,325963335E0	1,914258152E-1	9,810572624E0	9,020941257E-1	9,853819202E0
1,327159273E0	1,746760458E-1	9,812965393E0	9,164510965E-1	9,857214827E0
1,328355262E0	1,459621787E-1	9,810572624E0	9,260223508E-1	9,855260401E0
1,329551200E0	1,148554832E-1	9,820143700E0	9,379864931E-1	9,865507221E0
1,330747189E0	1,028913707E-1	9,834501266E0	9,451649189E-1	9,880351133E0
1,331943127E0	8,374879509E-2	9,844072342E0	9,547362328E-1	9,890616533E0
1,333139117E0	5,982056633E-2	9,853643417E0	9,667003751E-1	9,901130072E0
1,334335054E0	5,024927482E-2	9,851250648E0	9,906286001E-1	9,901061022E0
1,335531044E0	4,307080805E-2	9,846465111E0	1,012163997E0	9,898444637E0
1,336727033E0	3,828516230E-2	9,834501266E0	1,016949654E0	9,887015096E0
1,337922971E0	3,349951655E-2	9,817750931E0	1,016949654E0	9,870336476E0
1,339118960E0	2,153540403E-2	9,803394318E0	1,028913736E0	9,857264702E0
1,340314898E0	1,196411345E-2	9,791430473E0	1,045663476E0	9,847114601E0
1,341510887E0	1,435693540E-2	9,784252167E0	1,064806104E0	9,842032749E0
1,342706825E0	2,153540403E-2	9,769894600E0	1,086341500E0	9,830129303E0
1,343902814E0	3,349951655E-2	9,760323524E0	1,100698471E0	9,822248961E0
1,345098804E0	3,589234129E-2	9,748359680E0	1,110269666E0	9,811447571E0
1,346294742E0	3,110669367E-2	9,731609344E0	1,122233868E0	9,796152148E0
1,347490731E0	3,349951655E-2	9,719645500E0	1,141376376E0	9,786489202E0
1,348686669E0	4,307080805E-2	9,717252731E0	1,155733347E0	9,785835443E0
1,349882658E0	5,024927482E-2	9,702896118E0	1,162911773E0	9,772465495E0
1,351078596E0	5,982056633E-2	9,690931320E0	1,179661512E0	9,762649724E0
1,352274585E0	6,939185411E-2	9,688538551E0	1,194018483E0	9,762083519E0
1,353470523E0	6,939185411E-2	9,688538551E0	1,203589797E0	9,763258825E0
1,354666512E0	7,178468257E-2	9,678967476E0	1,225125194E0	9,756459203E0
1,355862502E0	7,417750359E-2	9,659825325E0	1,256231904E0	9,741449903E0
1,357058439E0	8,135596663E-2	9,647860527E0	1,270588875E0	9,731506956E0
1,358254429E0	9,332008660E-2	9,652647018E0	1,275374413E0	9,736985313E0
1,359450367E0	1,028913707E-1	9,657432556E0	1,280160069E0	9,742453490E0
1,360646356E0	1,148554832E-1	9,650253296E0	1,289731383E0	9,736733924E0
1,361842294E0	1,244267747E-1	9,638289452E0	1,292124271E0	9,725311857E0
1,363038283E0	1,220339537E-1	9,631111145E0	1,299302697E0	9,719124532E0
1,364234273E0	1,268195957E-1	9,623932838E0	1,306481123E0	9,713035541E0
1,365430210E0	1,339980662E-1	9,621540070E0	1,311266780E0	9,711406147E0
1,366626200E0	1,411765367E-1	9,631111145E0	1,318445325E0	9,721961262E0
1,367822137E0	1,459621787E-1	9,628718376E0	1,318445325E0	9,719661548E0
1,369018127E0	1,387837082E-1	9,635896683E0	1,325623751E0	9,727643298E0
1,370214064E0	1,316052526E-1	9,650253296E0	1,339980721E0	9,743729109E0
1,371410054E0	1,339980662E-1	9,643074989E0	1,344766378E0	9,737312121E0
1,372606044E0	1,387837082E-1	9,640682220E0	1,347159147E0	9,735340382E0
1,373801981E0	1,220339537E-1	9,655039787E0	1,351944804E0	9,749996940E0
1,374997971E0	1,100698411E-1	9,657432556E0	1,359123230E0	9,753221770E0
1,376193908E0	1,124626622E-1	9,650253296E0	1,366301775E0	9,747144047E0
1,377389898E0	9,810572863E-2	9,652647018E0	1,378265858E0	9,751042815E0
1,378585835E0	7,417750359E-2	9,664610863E0	1,390229940E0	9,764371189E0
1,379781825E0	5,503492057E-2	9,671789169E0	1,390229940E0	9,771349644E0
1,380977814E0	5,264209956E-2	9,669396400E0	1,392622828E0	9,769308895E0
1,382173752E0	4,546362907E-2	9,659825325E0	1,397408366E0	9,760483717E0
1,383369742E0	3,110669367E-2	9,655039787E0	1,395015597E0	9,755348760E0
1,384565679E0	2,153540403E-2	9,667003632E0	1,395015597E0	9,767163944E0
1,385761669E0	1,435693540E-2	9,688538551E0	1,397408366E0	9,788806645E0
1,386957606E0	0,000000000E0	9,705288887E0	1,397408366E0	9,805375185E0
1,388153596E0	-1,674975827E-2	9,722038269E0	1,402194023E0	9,822650189E0
1,389349585E0	-4,307080805E-2	9,741181374E0	1,404586911E0	9,842018799E0
1,390545523E0	-7,657032460E-2	9,755537987E0	1,390229940E0	9,854396162E0
1,391741512E0	-8,374879509E-2	9,769894600E0	1,373480201E0	9,866321615E0
1,392937450E0	-8,853443712E-2	9,784252167E0	1,366301775E0	9,879585485E0
1,394133439E0	-1,028913707E-1	9,779465675E0	1,356730461E0	9,873664622E0
1,395329377E0	-1,052841991E-1	9,769894600E0	1,342373490E0	9,862245781E0
1,396525367E0	-1,076770201E-1	9,774680138E0	1,325623751E0	9,864747562E0
1,397721304E0	-1,052841991E-1	9,772287369E0	1,316052437E0	9,861068867E0
1,398917294E0	-1,004985496E-1	9,765109062E0	1,306481123E0	9,852631521E0
1,400113283E0	-9,332008660E-2	9,757930756E0	1,292124271E0	9,843551514E0
1,401309221E0	-8,374879509E-2	9,750752449E0	1,284945726E0	9,835409127E0
1,402505210E0	-6,939185411E-2	9,757930756E0	1,275374413E0	9,841169024E0
1,403701148E0	-5,503492057E-2	9,753145218E0	1,272981644E0	9,836023218E0
1,404897137E0	-4,307080805E-2	9,734002113E0	1,277767301E0	9,817603654E0
1,406093127E0	-1,674975827E-2	9,719645500E0	1,275374413E0	9,802977563E0
1,407289064E0	9,571290575E-3	9,714859962E0	1,263410330E0	9,796672974E0
1,408485054E0	2,153540403E-2	9,707681656E0	1,261017561E0	9,789265151E0
1,409680992E0	2,153540403E-2	9,690931320E0	1,253839016E0	9,771730957E0
1,410876981E0	4,307080805E-2	9,674181938E0	1,249053478E0	9,754577687E0
1,412072919E0	7,417750359E-2	9,657432556E0	1,249053478E0	9,738153853E0
1,413268908E0	9,810572863E-2	9,645467758E0	1,239482164E0	9,725275782E0
1,414464846E0	1,244267747E-1	9,638289452E0	1,213161111E0	9,715135895E0
1,415660835E0	1,531406492E-1	9,621540070E0	1,186840057E0	9,695672988E0
1,416856825E0	1,842473447E-1	9,607182503E0	1,172483087E0	9,680217937E0
1,418052762E0	2,081755698E-1	9,595218658E0	1,148554921E0	9,665957613E0
1,419248752E0	2,321037948E-1	9,585647583E0	1,117448211E0	9,653351867E0
1,420444689E0	2,584248483E-1	9,576076508E0	1,095912814E0	9,642045923E0
1,421640679E0	2,751746178E-1	9,554540634E0	1,088734269E0	9,620307173E0
1,422836617E0	2,847459018E-1	9,537791252E0	1,088734269E0	9,603951505E0
1,424032606E0	3,086741269E-1	9,523433685E0	1,083948612E0	9,589891213E0
1,425228596E0	3,373879790E-1	9,521040916E0	1,076770186E0	9,587673587E0
1,426424533E0	3,517449200E-1	9,525827408E0	1,062413216E0	9,591341623E0
1,427620523E0	3,613162339E-1	9,535398483E0	1,055234790E0	9,600411143E0
1,428816460E0	3,661018610E-1	9,556933403E0	1,048056364E0	9,621196848E0
1,430012450E0	3,661018610E-1	9,564111710E0	1,033699393E0	9,626775047E0
1,431208387E0	3,732803464E-1	9,559326172E0	1,028913736E0	9,621783543E0
1,432404377E0	3,828516304E-1	9,559326172E0	1,026520967E0	9,621904049E0
1,433600314E0	3,924229145E-1	9,556933403E0	1,014556766E0	9,618643212E0
1,434796304E0	4,091726840E-1	9,576076508E0	9,882357717E-1	9,635625226E0
1,435992294E0	4,139583111E-1	9,592825890E0	9,667003751E-1	9,650294278E0
1,437188231E0	4,331009090E-1	9,600004196E0	9,547362328E-1	9,657079177E0
1,438384221E0	4,546363056E-1	9,607182503E0	9,547362328E-1	9,665204141E0
1,439580158E0	4,594219327E-1	9,619147301E0	9,571290612E-1	9,677559576E0
1,440776148E0	4,594219327E-1	9,631111145E0	9,475577474E-1	9,688510519E0
1,441972085E0	4,666004181E-1	9,640682220E0	9,332008362E-1	9,696975478E0
1,443168075E0	4,713860750E-1	9,643074989E0	9,236295223E-1	9,698669578E0
1,444364064E0	4,546363056E-1	9,640682220E0	9,188438654E-1	9,695035941E0
1,445560002E0	4,498506486E-1	9,645467758E0	9,164510965E-1	9,699345158E0
1,446755992E0	4,522434771E-1	9,647860527E0	9,188438654E-1	9,702062201E0
1,447951929E0	4,474578202E-1	9,650253296E0	9,140582681E-1	9,703767809E0
1,449147919E0	4,331009090E-1	9,657432556E0	9,140582681E-1	9,710256562E0
1,450343856E0	4,235295951E-1	9,674181938E0	9,212366939E-1	9,727170736E0
1,451539846E0	4,211367965E-1	9,683753014E0	9,212366939E-1	9,736585935E0
1,452735835E0	4,211367965E-1	9,686145782E0	9,236295223E-1	9,739192359E0
1,453931773E0	4,139583111E-1	9,693324089E0	9,236295223E-1	9,746024055E0
1,455127762E0	3,972085714E-1	9,702896118E0	9,188438654E-1	9,754396023E0
1,456323700E0	3,684946895E-1	9,717252731E0	9,236295223E-1	9,768002891E0
1,457519689E0	3,373879790E-1	9,726823807E0	9,284151793E-1	9,776854646E0
1,458715627E0	3,182454109E-1	9,734002113E0	9,284151793E-1	9,783354845E0
1,459911617E0	3,062812984E-1	9,745966911E0	9,355936646E-1	9,795560973E0
1,461107606E0	2,943171859E-1	9,765109062E0	9,451649189E-1	9,815157377E0
1,462303544E0	2,799602449E-1	9,777072906E0	9,499505758E-1	9,827102241E0
1,463499533E0	2,656033039E-1	9,786644936E0	9,595218897E-1	9,837156422E0
1,464695471E0	2,368894368E-1	9,791430473E0	9,738788009E-1	9,842594538E0
1,465891460E0	2,081755698E-1	9,793823242E0	9,834501147E-1	9,845277289E0
1,467087398E0	1,794617027E-1	9,810572624E0	1,002592683E0	9,863302378E0
1,468283387E0	1,651047617E-1	9,824930191E0	1,021735311E0	9,879294301E0
1,469479377E0	1,674975902E-1	9,824930191E0	1,026520967E0	9,879830666E0
1,470675314E0	1,579262912E-1	9,822537422E0	1,028913736E0	9,877542488E0
1,471871304E0	1,435693651E-1	9,824930191E0	1,026520967E0	9,879453969E0
1,473067242E0	1,435693651E-1	9,827322960E0	1,028913736E0	9,882082382E0
1,474263231E0	1,411765367E-1	9,836894035E0	1,038485050E0	9,892566213E0
1,475459169E0	1,363908947E-1	9,829715729E0	1,045663476E0	9,886117837E0
1,476655158E0	1,363908947E-1	9,832108498E0	1,050449133E0	9,889004165E0
1,477851148E0	1,316052526E-1	9,851250648E0	1,057627559E0	9,908735305E0
1,479047085E0	1,172483116E-1	9,856036186E0	1,071984529E0	9,914854881E0
1,480243075E0	1,076770201E-1	9,844072342E0	1,081555843E0	9,903894065E0
1,481439012E0	1,028913707E-1	9,829715729E0	1,088734269E0	9,890360977E0
1,482635002E0	9,810572863E-2	9,824930191E0	1,098305583E0	9,886614848E0
1,483830939E0	9,332008660E-2	9,820143700E0	1,098305583E0	9,881811882E0
1,485026929E0	9,092725813E-2	9,822537422E0	1,098305583E0	9,884168368E0
1,486222867E0	9,332008660E-2	9,817750931E0	1,112662554E0	9,881040428E0
1,487418856E0	1,052841991E-1	9,817750931E0	1,129412293E0	9,883060772E0
1,488614846E0	1,124626622E-1	9,815358162E0	1,131805062E0	9,881036707E0
1,489810783E0	1,100698411E-1	9,798608780E0	1,143769264E0	9,865751746E0
1,491006773E0	1,052841991E-1	9,784252167E0	1,158126116E0	9,853117848E0
1,492202710E0	1,148554832E-1	9,791430473E0	1,160519004E0	9,860634201E0
1,493398700E0	1,244267747E-1	9,791430473E0	1,162911773E0	9,861032224E0
1,494594637E0	1,387837082E-1	9,781859398E0	1,162911773E0	9,851720560E0
1,495790627E0	1,603191197E-1	9,784252167E0	1,150947690E0	9,853018485E0
1,496986617E0	1,722832322E-1	9,784252167E0	1,143769264E0	9,852384488E0
1,498182554E0	1,674975902E-1	9,786644936E0	1,141376376E0	9,854400772E0
1,499378544E0	1,770688742E-1	9,801001549E0	1,131805062E0	9,867723519E0
1,500574481E0	1,962114573E-1	9,815358162E0	1,110269666E0	9,879901493E0
1,501770471E0	2,033899277E-1	9,824930191E0	1,083948612E0	9,886635692E0
1,502966408E0	1,986042857E-1	9,836894035E0	1,062413216E0	9,896092651E0
1,504162398E0	1,986042857E-1	9,841679573E0	1,043270707E0	9,898813780E0
1,505358387E0	2,033899277E-1	9,839286804E0	1,021735311E0	9,894284983E0
1,506554325E0	2,153540403E-1	9,832108498E0	1,000199914E0	9,885197759E0
1,507750314E0	2,344966233E-1	9,829715729E0	9,810572863E-1	9,881334595E0
1,508946252E0	2,464607358E-1	9,836894035E0	9,619147182E-1	9,886885611E0
1,510142242E0	2,512463629E-1	9,853643417E0	9,499505758E-1	9,902515813E0
1,511338179E0	2,440679073E-1	9,860821724E0	9,427721500E-1	9,908793748E0
1,512534169E0	2,392822653E-1	9,863214493E0	9,379864931E-1	9,910604159E0
1,513730106E0	2,464607358E-1	9,875179291E0	9,284151793E-1	9,921787322E0
1,514926096E0	2,608176768E-1	9,889535904E0	9,284151793E-1	9,936443076E0
1,516122085E0	2,679961324E-1	9,899106979E0	9,332008362E-1	9,946607699E0
1,517318023E0	2,703889608E-1	9,906285286E0	9,355936646E-1	9,954041082E0
1,518514012E0	2,679961324E-1	9,911071777E0	9,355936646E-1	9,958739941E0
1,519709950E0	2,608176768E-1	9,911071777E0	9,332008362E-1	9,958324831E0
1,520905939E0	2,632105052E-1	9,903892517E0	9,284151793E-1	9,950795019E0
1,522101929E0	2,656033039E-1	9,906285286E0	9,260223508E-1	9,953017164E0
1,523297867E0	2,656033039E-1	9,901499748E0	9,308080077E-1	9,948700715E0
1,524493856E0	2,632105052E-1	9,899106979E0	9,427721500E-1	9,947382474E0
1,525689794E0	2,416750938E-1	9,908679008E0	9,547362328E-1	9,957502087E0
1,526885783E0	2,249253243E-1	9,923035622E0	9,738788009E-1	9,973247579E0
1,528081721E0	2,225325108E-1	9,937392235E0	9,954141974E-1	9,989601322E0
1,529277710E0	2,177468538E-1	9,934999466E0	1,014556766E0	9,989041671E0
1,530473700E0	1,890329868E-1	9,932606697E0	1,024128079E0	9,987054000E0
1,531669637E0	1,674975902E-1	9,923035622E0	1,040877819E0	9,978883606E0
1,532865627E0	1,698904037E-1	9,918250084E0	1,055234790E0	9,975673809E0
1,534061564E0	1,651047617E-1	9,911071777E0	1,067198873E0	9,969730026E0
1,535258127E0	1,627119333E-1	9,901499748E0	1,079162955E0	9,961464005E0
1,536453492E0	1,555334777E-1	9,889535904E0	1,088734269E0	9,950500157E0
1,537649481E0	1,555334777E-1	9,875179291E0	1,088734269E0	9,936231630E0
1,538845419E0	1,651047617E-1	9,868000984E0	1,095912814E0	9,930041687E0
1,540041408E0	1,627119333E-1	9,860821724E0	1,103091240E0	9,923663161E0
1,541237398E0	1,674975902E-1	9,844072342E0	1,107876897E0	9,907633771E0
1,542433335E0	1,674975902E-1	9,844072342E0	1,119840980E0	9,908978733E0
1,543629325E0	1,674975902E-1	9,846465111E0	1,124626637E0	9,911897684E0
1,544825262E0	1,818545163E-1	9,834501266E0	1,129412293E0	9,900810995E0
1,546021252E0	1,890329868E-1	9,829715729E0	1,143769264E0	9,897840821E0
1,547217189E0	1,962114573E-1	9,822537422E0	1,158126116E0	9,892522249E0
1,548413179E0	2,081755698E-1	9,812965393E0	1,165304661E0	9,884106526E0
1,549609169E0	2,225325108E-1	9,803394318E0	1,172483087E0	9,875767183E0
1,550805106E0	2,321037948E-1	9,793823242E0	1,172483087E0	9,866486835E0
1,552001096E0	2,488535494E-1	9,789037704E0	1,167697430E0	9,861577184E0
1,553197033E0	2,584248483E-1	9,772287369E0	1,170090318E0	9,845480952E0
1,554393023E0	2,632105052E-1	9,760323524E0	1,179661512E0	9,834876530E0
1,555588960E0	2,727817893E-1	9,750752449E0	1,194018483E0	9,827373167E0
1,556784950E0	2,895315289E-1	9,743574142E0	1,196411371E0	9,821021624E0
1,557980939E0	3,086741269E-1	9,748359680E0	1,189232826E0	9,825480695E0
1,559176877E0	3,206382394E-1	9,745966911E0	1,184447169E0	9,822911738E0
1,560372867E0	3,158525825E-1	9,738788605E0	1,186840057E0	9,815923577E0
1,561568804E0	3,086741269E-1	9,741181374E0	1,186840057E0	9,818069240E0
1,562764794E0	3,038884699E-1	9,736394882E0	1,182054400E0	9,812593241E0
1,563960731E0	2,991028428E-1	9,734002113E0	1,177268744E0	9,809496488E0
1,565156721E0	3,014956415E-1	9,738788605E0	1,167697430E0	9,813175857E0
1,566352710E0	3,014956415E-1	9,753145218E0	1,153340459E0	9,825728242E0
1,567548648E0	2,967100143E-1	9,760323524E0	1,143769264E0	9,831589915E0
1,568744637E0	2,871387303E-1	9,762716293E0	1,131805062E0	9,832296821E0
1,569940575E0	2,871387303E-1	9,765109062E0	1,134197950E0	9,834948329E0
1,571136564E0	2,847459018E-1	9,762716293E0	1,148554921E0	9,834169414E0
1,572332502E0	2,751746178E-1	9,760323524E0	1,158126116E0	9,832644226E0
1,573528492E0	2,727817893E-1	9,767501831E0	1,167697430E0	9,840834274E0
1,574724429E0	2,679961324E-1	9,769894600E0	1,174875975E0	9,843931937E0
1,575920419E0	2,584248483E-1	9,772287369E0	1,184447169E0	9,847197516E0
1,577116408E0	2,584248483E-1	9,772287369E0	1,196411371E0	9,848643764E0
1,578312346E0	2,632105052E-1	9,772287369E0	1,208375454E0	9,850231034E0
1,579508335E0	2,679961324E-1	9,760323524E0	1,232303619E0	9,841458705E0
1,580704273E0	2,679961324E-1	9,750752449E0	1,246660590E0	9,833776379E0
1,581900262E0	2,679961324E-1	9,750752449E0	1,253839016E0	9,834688990E0
1,583096252E0	2,656033039E-1	9,760323524E0	1,256231904E0	9,844418673E0
1,584292189E0	2,584248483E-1	9,765109062E0	1,258624673E0	9,849277865E0
1,585488179E0	2,464607358E-1	9,750752449E0	1,268195987E0	9,835966515E0
1,586684117E0	2,392822653E-1	9,743574142E0	1,263410330E0	9,828056712E0
1,587880106E0	2,273181528E-1	9,750752449E0	1,261017561E0	9,834582460E0
1,589076044E0	2,129612118E-1	9,767501831E0	1,270588875E0	9,852098283E0
1,590272033E0	1,962114573E-1	9,779465675E0	1,277767301E0	9,864539376E0
1,591467971E0	1,770688742E-1	9,789037704E0	1,275374413E0	9,873357709E0
1,592663960E0	1,579262912E-1	9,801001549E0	1,265803218E0	9,883664799E0
1,593859950E0	1,363908947E-1	9,803394318E0	1,263410330E0	9,885410881E0
1,595055887E0	1,148554832E-1	9,812965393E0	1,275374413E0	9,896163978E0
1,596251877E0	8,853443712E-2	9,817750931E0	1,287338614E0	9,902187253E0
1,597447814E0	6,460621208E-2	9,824930191E0	1,296909928E0	9,910368438E0
1,598643804E0	5,024927482E-2	9,832108498E0	1,304088354E0	9,918343054E0
1,599839742E0	3,589234129E-2	9,824930191E0	1,304088354E0	9,911164813E0
1,601035731E0	1,674975827E-2	9,817750931E0	1,316052437E0	9,905579635E0
1,602231721E0	7,178467698E-3	9,822537422E0	1,339980721E0	9,913518108E0
1,603427658E0	9,571290575E-3	9,824930191E0	1,356730461E0	9,918168299E0
1,604623648E0	9,571290575E-3	9,812965393E0	1,363908887E0	9,907301795E0
1,605819585E0	4,785645287E-3	9,796216011E0	1,373480201E0	9,892033102E0
1,607015575E0	2,392822644E-3	9,786644936E0	1,373480201E0	9,882553955E0
1,608211512E0	7,178467698E-3	9,791430473E0	1,361516118E0	9,885640515E0
1,609407502E0	-7,178467698E-3	9,789037704E0	1,359123230E0	9,882941195E0
1,610603492E0	-1,674975827E-2	9,784252167E0	1,354337573E0	9,877555430E0
1,611799429E0	-4,785645287E-3	9,777072906E0	1,344766378E0	9,869122258E0
1,612995419E0	9,571290575E-3	9,762716293E0	1,342373490E0	9,854576988E0
1,614191356E0	1,435693540E-2	9,743574142E0	1,335195065E0	9,834642294E0
1,615387346E0	1,435693540E-2	9,738788605E0	1,323230863E0	9,828283142E0
1,616583283E0	3,110669367E-2	9,731609344E0	1,316052437E0	9,820243484E0
1,617779273E0	5,264209956E-2	9,724431038E0	1,306481123E0	9,811942882E0
1,618975210E0	5,982056633E-2	9,714859962E0	1,299302697E0	9,801544271E0
1,620171200E0	6,221338734E-2	9,695717812E0	1,280160069E0	9,780062586E0
1,621367189E0	7,178468257E-2	9,695717812E0	1,261017561E0	9,777640933E0
1,622563127E0	8,853443712E-2	9,698110580E0	1,251446247E0	9,778921458E0
1,623759117E0	1,004985496E-1	9,693324089E0	1,237089276E0	9,772462419E0
1,624955054E0	1,100698411E-1	9,690931320E0	1,225125194E0	9,768684505E0
1,626151044E0	1,244267747E-1	9,690931320E0	1,203589797E0	9,766179410E0
1,627346981E0	1,387837082E-1	9,695717812E0	1,177268744E0	9,767915156E0
1,628542971E0	1,531406492E-1	9,700503349E0	1,155733347E0	9,770308944E0
1,629738960E0	1,746760458E-1	9,714859962E0	1,134197950E0	9,782403631E0
1,630934898E0	1,842473447E-1	9,722038269E0	1,107876897E0	9,786693334E0
1,632130887E0	1,962114573E-1	9,719645500E0	1,083948612E0	9,781868542E0
1,633326825E0	2,129612118E-1	9,722038269E0	1,060020447E0	9,781974439E0
1,634522814E0	2,129612118E-1	9,726823807E0	1,031306505E0	9,783662246E0
1,635718752E0	2,105683982E-1	9,729216576E0	9,978070259E-1	9,782515683E0
1,636914742E0	2,105683982E-1	9,722038269E0	9,762716293E-1	9,773201801E0
1,638110731E0	2,129612118E-1	9,729216576E0	9,595218897E-1	9,778736621E0
1,639306669E0	2,249253243E-1	9,741181374E0	9,379864931E-1	9,788821411E0
1,640502658E0	2,392822653E-1	9,748359680E0	9,212366939E-1	9,794715387E0
1,641698596E0	2,464607358E-1	9,760323524E0	9,068797827E-1	9,805462209E0
1,642894585E0	2,392822653E-1	9,772287369E0	8,949156404E-1	9,816095478E0
1,644090523E0	2,297109663E-1	9,777072906E0	8,901300430E-1	9,820196192E0
1,645286512E0	2,225325108E-1	9,774680138E0	8,781659007E-1	9,816571085E0
1,646482502E0	2,105683982E-1	9,777072906E0	8,542376757E-1	9,816578614E0
1,647678439E0	2,033899277E-1	9,791430473E0	8,303094506E-1	9,828677020E0
1,648874429E0	2,009970993E-1	9,810572624E0	8,183453679E-1	9,846696105E0
1,650070367E0	1,962114573E-1	9,827322960E0	8,015955687E-1	9,861913149E0
1,651266356E0	1,962114573E-1	9,836894035E0	7,896314859E-1	9,870486365E0
1,652462294E0	1,914258152E-1	9,844072342E0	7,824530005E-1	9,876975084E0
1,653658283E0	1,746760458E-1	9,848857880E0	7,776673436E-1	9,881056611E0
1,654854273E0	1,651047617E-1	9,856036186E0	7,776673436E-1	9,888047097E0
1,656050210E0	1,603191197E-1	9,856036186E0	7,657032609E-1	9,887034591E0
1,657246200E0	1,483550072E-1	9,853643417E0	7,513462901E-1	9,883360716E0
1,658442137E0	1,387837082E-1	9,870393753E0	7,441678643E-1	9,899379757E0
1,659638127E0	1,196411327E-1	9,884750366E0	7,393822074E-1	9,913086797E0
1,660834064E0	1,052841991E-1	9,875179291E0	7,345965505E-1	9,903023926E0
1,662030054E0	9,810572863E-2	9,863214493E0	7,393822074E-1	9,891375582E0
1,663226044E0	8,374879509E-2	9,858428955E0	7,417750359E-1	9,886650875E0
1,664421981E0	5,982056633E-2	9,858428955E0	7,561319470E-1	9,887564689E0
1,665617971E0	4,307080805E-2	9,860821724E0	7,704889178E-1	9,890971304E0
1,666813908E0	2,392822690E-2	9,865608215E0	7,872386575E-1	9,896996652E0
1,668009898E0	1,435693540E-2	9,858428955E0	8,135597110E-1	9,891951627E0
1,669205835E0	7,178467698E-3	9,844072342E0	8,422735929E-1	9,880042338E0
1,670401825E0	-1,435693540E-2	9,836894035E0	8,709874153E-1	9,875389079E0
1,671597762E0	-3,589234129E-2	9,824930191E0	8,949156404E-1	9,865668529E0
1,672793752E0	-4,785645381E-2	9,815358162E0	9,140582681E-1	9,857943427E0
1,673989742E0	-5,024927482E-2	9,808179855E0	9,355936646E-1	9,852829673E0
1,675185679E0	-6,460621208E-2	9,803394318E0	9,499505758E-1	9,849523857E0
1,676381669E0	-8,614161611E-2	9,791430473E0	9,667003751E-1	9,839412620E0
1,677577606E0	-1,028913707E-1	9,781859398E0	9,834501147E-1	9,831710637E0
1,678773596E0	-1,100698411E-1	9,777072906E0	1,007378340E0	9,829449685E0
1,679969533E0	-1,076770201E-1	9,765109062E0	1,026520967E0	9,819505824E0
1,681165523E0	-9,810572863E-2	9,748359680E0	1,043270707E0	9,804517069E0
1,682361512E0	-9,092725813E-2	9,743574142E0	1,081555843E0	9,803839446E0
1,683557450E0	-9,332008660E-2	9,736394882E0	1,122233868E0	9,801301077E0
1,684753439E0	-1,076770201E-1	9,719645500E0	1,146162033E0	9,787583481E0
1,685949377E0	-1,148554832E-1	9,705288887E0	1,170090318E0	9,776243425E0
1,687145367E0	-1,196411327E-1	9,683753014E0	1,201196909E0	9,758701781E0
1,688341356E0	-1,292124242E-1	9,664610863E0	1,225125194E0	9,742809180E0
1,689537294E0	-1,196411327E-1	9,659825325E0	1,246660590E0	9,740672561E0
1,690733231E0	-1,076770201E-1	9,657432556E0	1,277767301E0	9,742191088E0
1,691929169E0	-1,028913707E-1	9,650253296E0	1,311266780E0	9,739476160E0
1,693125210E0	-1,052841991E-1	9,652647018E0	1,339980721E0	9,745779987E0
1,694321148E0	-1,124626622E-1	9,659825325E0	1,363908887E0	9,756286210E0
1,695517137E0	-1,124626622E-1	9,664610863E0	1,387837172E0	9,764396704E0
1,696713127E0	-1,052841991E-1	9,669396400E0	1,404586911E0	9,771446971E0
1,697909064E0	-9,810572863E-2	9,674181938E0	1,418943882E0	9,778180948E0
1,699105054E0	-8,614161611E-2	9,671789169E0	1,430907965E0	9,777444641E0
1,700300992E0	-6,460621208E-2	9,662218094E0	1,452443361E0	9,770988905E0
1,701496981E0	-5,982056633E-2	9,664610863E0	1,481157184E0	9,777633059E0
1,702692919E0	-6,699903309E-2	9,676574707E0	1,493121386E0	9,791322607E0
1,703888908E0	-6,699903309E-2	9,678967476E0	1,490728498E0	9,793322813E0
1,705084846E0	-5,264209956E-2	9,669396400E0	1,490728498E0	9,783775825E0
1,706280835E0	-3,589234129E-2	9,669396400E0	1,497906923E0	9,784796378E0
1,707476825E0	-3,110669367E-2	9,674181938E0	1,505085468E0	9,790610097E0
1,708672762E0	-3,110669367E-2	9,681360245E0	1,517049551E0	9,799548110E0
1,709868752E0	-2,871387079E-2	9,686145782E0	1,536192179E0	9,807248901E0
1,711064689E0	-2,632104978E-2	9,676574707E0	1,536192179E0	9,797789407E0
1,712260679E0	-1,435693540E-2	9,667003632E0	1,529013634E0	9,787187953E0
1,713456617E0	-1,196411345E-2	9,669396400E0	1,526620865E0	9,789174692E0
1,714652606E0	-2,153540403E-2	9,674181938E0	1,533799291E0	9,795039572E0
1,715848596E0	-2,153540403E-2	9,681360245E0	1,533799291E0	9,802129372E0
1,717044533E0	-2,632104978E-2	9,674181938E0	1,526620865E0	9,793929765E0
1,718240523E0	-4,546362907E-2	9,667003632E0	1,531406522E0	9,787657130E0
1,719436460E0	-5,742774159E-2	9,655039787E0	1,536192179E0	9,776654727E0
1,720632450E0	-5,742774159E-2	9,650253296E0	1,543370605E0	9,773058858E0
1,721828387E0	-6,460621208E-2	9,662218094E0	1,555334687E0	9,786812476E0
1,723024377E0	-6,939185411E-2	9,669396400E0	1,562513232E0	9,795074761E0
1,724220367E0	-5,982056633E-2	9,664610863E0	1,552941918E0	9,788764489E0
1,725416304E0	-5,742774159E-2	9,652647018E0	1,540977836E0	9,775045018E0
1,726612294E0	-5,503492057E-2	9,655039787E0	1,536192179E0	9,776640964E0
1,727808231E0	-5,024927482E-2	9,664610863E0	1,531406522E0	9,785317269E0
1,729004221E0	-5,264209956E-2	9,669396400E0	1,521835208E0	9,788563753E0
1,730200158E0	-5,264209956E-2	9,667003632E0	1,495514154E0	9,782141534E0
1,731396148E0	-5,982056633E-2	9,667003632E0	1,457229018E0	9,776402924E0
1,732592137E0	-8,374879509E-2	9,667003632E0	1,421336651E0	9,771293208E0
1,733788075E0	-1,100698411E-1	9,667003632E0	1,380658627E0	9,765720292E0
1,734984064E0	-1,244267747E-1	9,669396400E0	1,351944804E0	9,764244135E0
1,736180002E0	-1,220339537E-1	9,678967476E0	1,323230863E0	9,769761696E0
1,737375992E0	-1,316052526E-1	9,693324089E0	1,292124271E0	9,779950765E0
1,738571929E0	-1,459621787E-1	9,702896118E0	1,256231904E0	9,784968913E0
1,739767919E0	-1,531406492E-1	9,702896118E0	1,220339537E0	9,780535452E0
1,740963856E0	-1,555334777E-1	9,710074425E0	1,186840057E0	9,783574261E0
1,742159846E0	-1,555334777E-1	9,712467194E0	1,158126116E0	9,782508152E0
1,743355835E0	-1,483550072E-1	9,707681656E0	1,129412293E0	9,774285880E0
1,744551773E0	-1,339980662E-1	9,705288887E0	1,091127157E0	9,767351040E0
1,745747762E0	-1,244267747E-1	9,698110580E0	1,050449133E0	9,755627824E0
1,746943700E0	-1,196411327E-1	9,686145782E0	1,012163997E0	9,739620633E0
1,748139689E0	-1,124626622E-1	9,683753014E0	9,810572863E-1	9,733971116E0
1,749335679E0	-1,004985496E-1	9,686145782E0	9,499505758E-1	9,733135475E0
1,750531617E0	-7,896314561E-2	9,683753014E0	9,116654396E-1	9,726892694E0
1,751727606E0	-6,221338734E-2	9,681360245E0	8,829515576E-1	9,721739050E0
1,752923544E0	-5,742774159E-2	9,671789169E0	8,614161611E-1	9,710244152E0
1,754119533E0	-5,264209956E-2	9,652647018E0	8,350951076E-1	9,688846654E0
1,755315471E0	-4,067798331E-2	9,633503914E0	8,015955687E-1	9,666882011E0
1,756511460E0	-1,914258115E-2	9,631111145E0	7,824530005E-1	9,662861948E0
1,757707398E0	2,392822644E-3	9,643074989E0	7,752745152E-1	9,674189969E0
1,758903387E0	2,392822690E-2	9,647860527E0	7,537391186E-1	9,677288255E0
1,760099377E0	3,828516230E-2	9,655039787E0	7,345965505E-1	9,683020765E0
1,761295314E0	5,024927482E-2	9,664610863E0	7,202396393E-1	9,691541325E0
1,762491304E0	6,221338734E-2	9,678967476E0	7,082754970E-1	9,705046939E0
1,763687242E0	7,417750359E-2	9,688538551E0	6,891329288E-1	9,713299427E0
1,764883231E0	9,332008660E-2	9,695717812E0	6,628118753E-1	9,718794787E0
1,766079169E0	1,124626622E-1	9,712467194E0	6,388836503E-1	9,734107004E0
1,767275158E0	1,363908947E-1	9,726823807E0	6,173482537E-1	9,747349522E0
1,768471148E0	1,651047617E-1	9,726823807E0	5,910272002E-1	9,746162019E0
1,769667085E0	1,770688742E-1	9,731609344E0	5,599204898E-1	9,749312015E0
1,770863075E0	1,842473447E-1	9,736394882E0	5,312066078E-1	9,752615693E0
1,772059012E0	1,962114573E-1	9,734002113E0	5,168496966E-1	9,749688697E0
1,773255002E0	2,081755698E-1	9,738788605E0	5,000999570E-1	9,753842347E0
1,774450939E0	2,153540403E-1	9,741181374E0	4,737788737E-1	9,755073467E0
1,775646929E0	2,249253243E-1	9,748359680E0	4,570291340E-1	9,761658849E0
1,776842919E0	2,488535494E-1	9,757930756E0	4,450650215E-1	9,771244731E0
1,778038856E0	2,584248483E-1	9,753145218E0	4,354937077E-1	9,766282804E0
1,779234846E0	2,560320199E-1	9,738788605E0	4,331009090E-1	9,751775853E0
1,780430783E0	2,632105052E-1	9,743574142E0	4,283152521E-1	9,756534774E0
1,781626773E0	2,703889608E-1	9,757930756E0	4,259224236E-1	9,770963757E0
1,782822710E0	2,703889608E-1	9,762716293E0	4,259224236E-1	9,775742914E0
1,784018700E0	2,775674164E-1	9,748359680E0	4,235295951E-1	9,761502827E0
1,785214689E0	2,919243574E-1	9,736394882E0	4,283152521E-1	9,750182516E0
1,786410627E0	3,014956415E-1	9,734002113E0	4,450650215E-1	9,748834784E0
1,787606617E0	3,062812984E-1	9,741181374E0	4,570291340E-1	9,756705305E0
1,788802554E0	3,134597540E-1	9,755537987E0	4,666004181E-1	9,771719111E0
1,789998544E0	3,230310678E-1	9,769894600E0	4,785645306E-1	9,786940971E0
1,791194481E0	3,326023519E-1	9,767501831E0	4,977070987E-1	9,785827952E0
1,792390471E0	3,349951804E-1	9,760323524E0	5,120640397E-1	9,779486012E0
1,793586408E0	3,278166950E-1	9,757930756E0	5,264210105E-1	9,777617066E0
1,794782398E0	3,134597540E-1	9,748359680E0	5,431707501E-1	9,768511040E0
1,795978387E0	2,991028428E-1	9,731609344E0	5,575276613E-1	9,752154636E0
1,797174325E0	2,943171859E-1	9,719645500E0	5,790630579E-1	9,741326669E0
1,798370314E0	3,038884699E-1	9,722038269E0	5,958128572E-1	9,745017664E0
1,799566252E0	3,062812984E-1	9,717252731E0	6,101697683E-1	9,741207113E0
1,800762242E0	2,991028428E-1	9,700503349E0	6,293123364E-1	9,725495450E0
1,801958231E0	2,919243574E-1	9,690931320E0	6,484549642E-1	9,716988398E0
1,803154169E0	2,943171859E-1	9,688538551E0	6,628118753E-1	9,715643131E0
1,804350158E0	2,967100143E-1	9,681360245E0	6,771687865E-1	9,709548423E0
1,805546096E0	2,895315289E-1	9,667003632E0	6,939185858E-1	9,696200840E0
1,806742085E0	2,967100143E-1	9,659825325E0	7,154539824E-1	9,690827444E0
1,807938023E0	2,991028428E-1	9,647860527E0	7,441678643E-1	9,681139451E0
1,809134012E0	2,943171859E-1	9,635896683E0	7,561319470E-1	9,669998087E0
1,810330002E0	2,871387303E-1	9,633503914E0	7,633104324E-1	9,667961994E0
1,811525939E0	2,871387303E-1	9,635896683E0	7,824530005E-1	9,671876045E0
1,812721929E0	2,799602449E-1	9,633503914E0	7,896314859E-1	9,669865215E0
1,813917867E0	2,751746178E-1	9,628718376E0	7,920243144E-1	9,665156034E0
1,815113856E0	2,751746178E-1	9,626325607E0	8,039883971E-1	9,663760299E0
1,816309794E0	2,703889608E-1	9,623932838E0	8,183453679E-1	9,662447030E0
1,817505783E0	2,679961324E-1	9,626325607E0	8,350951076E-1	9,666196277E0
1,818701721E0	2,727817893E-1	9,626325607E0	8,422735929E-1	9,666952954E0
1,819897710E0	2,679961324E-1	9,628718376E0	8,350951076E-1	9,668579179E0
1,821093700E0	2,536391914E-1	9,621540070E0	8,374879360E-1	9,661250033E0
1,822289637E0	2,488535494E-1	9,611968994E0	8,518448472E-1	9,652850132E0
1,823485627E0	2,656033039E-1	9,619147301E0	8,662018180E-1	9,661720628E0
1,824681564E0	2,847459018E-1	9,621540070E0	8,781659007E-1	9,665727541E0
1,825877554E0	2,943171859E-1	9,616754532E0	8,853443861E-1	9,661905869E0
1,827073544E0	2,967100143E-1	9,619147301E0	8,901300430E-1	9,664800211E0
1,828269481E0	3,038884699E-1	9,602396965E0	8,973084688E-1	9,649017471E0
1,829465471E0	3,086741269E-1	9,588040352E0	9,044869542E-1	9,635553651E0
1,830661408E0	3,110669553E-1	9,595218658E0	9,140582681E-1	9,643675973E0
1,831857398E0	3,158525825E-1	9,595218658E0	9,164510965E-1	9,644058615E0
1,833053335E0	3,254238665E-1	9,585647583E0	9,164510965E-1	9,634854586E0
1,834249325E0	3,469592929E-1	9,573683739E0	9,212366939E-1	9,624161165E0
1,835445262E0	3,684946895E-1	9,571290970E0	9,260223508E-1	9,623040921E0
1,836641252E0	3,852444589E-1	9,566504478E0	9,379864931E-1	9,620095628E0
1,837837242E0	3,924229145E-1	9,559326172E0	9,499505758E-1	9,614422432E0
1,839033179E0	4,043870270E-1	9,552147865E0	9,595218897E-1	9,608732485E0
1,840229169E0	4,259224236E-1	9,552147865E0	9,595218897E-1	9,609662898E0
1,841425106E0	4,450650215E-1	9,566504478E0	9,595218897E-1	9,624799897E0
1,842621096E0	4,570291340E-1	9,571290970E0	9,714859724E-1	9,631317223E0
1,843817033E0	4,713860750E-1	9,564111710E0	9,762716293E-1	9,625359418E0
1,845013023E0	4,953143001E-1	9,552147865E0	9,714859724E-1	9,614190038E0
1,846209012E0	5,192425251E-1	9,552147865E0	9,595218897E-1	9,614251084E0
1,847404950E0	5,335994363E-1	9,561718941E0	9,451649189E-1	9,623124970E0
1,848600939E0	5,407779217E-1	9,576076508E0	9,308080077E-1	9,636393806E0
1,849796877E0	5,527420044E-1	9,595218658E0	9,212366939E-1	9,655175911E0
1,850992867E0	5,575276613E-1	9,600004196E0	9,068797827E-1	9,658848203E0
1,852188804E0	5,503492355E-1	9,597611427E0	8,949156404E-1	9,654941916E0
1,853384794E0	5,551348329E-1	9,611968994E0	8,853443861E-1	9,668606793E0
1,854580783E0	5,527420044E-1	9,626325607E0	8,781659007E-1	9,682088812E0
1,855776721E0	5,431707501E-1	9,650253296E0	8,662018180E-1	9,704263430E0
1,856972710E0	5,431707501E-1	9,676574707E0	8,470591903E-1	9,728753353E0
1,858168648E0	5,407779217E-1	9,683753014E0	8,422735929E-1	9,735344780E0
1,859364637E0	5,240281820E-1	9,678967476E0	8,470591903E-1	9,730083566E0
1,860560575E0	5,072783828E-1	9,683753014E0	8,374879360E-1	9,733128471E0
1,861756564E0	4,977070987E-1	9,690931320E0	8,207381964E-1	9,738350651E0
1,862952554E0	4,881358147E-1	9,690931320E0	8,159525394E-1	9,737463991E0
1,864148492E0	4,761717021E-1	9,690931320E0	8,183453679E-1	9,737072377E0
1,865344481E0	4,570291340E-1	9,690931320E0	8,255237937E-1	9,736761013E0
1,866540419E0	4,450650215E-1	9,702896118E0	8,422735929E-1	9,749548746E0
1,867736408E0	4,378865361E-1	9,710074425E0	8,614161611E-1	9,758039135E0
1,868932346E0	4,163511395E-1	9,707681656E0	8,709874153E-1	9,755565103E0
1,870128335E0	3,852444589E-1	9,712467194E0	8,733802438E-1	9,759263565E0
1,871324325E0	3,708875179E-1	9,717252731E0	8,709874153E-1	9,763256489E0
1,872520262E0	3,565305769E-1	9,714859962E0	8,614161611E-1	9,759490558E0
1,873716252E0	3,517449200E-1	9,719645500E0	8,638089895E-1	9,764292043E0
1,874912189E0	3,493520916E-1	9,722038269E0	8,638089895E-1	9,766587990E0
1,876108179E0	3,397808075E-1	9,714859962E0	8,590233326E-1	9,758682092E0
1,877304117E0	3,373879790E-1	9,714859962E0	8,494520187E-1	9,757761192E0
1,878500106E0	3,373879790E-1	9,722038269E0	8,350951076E-1	9,763669525E0
1,879696096E0	3,397808075E-1	9,726823807E0	8,327022791E-1	9,768313337E0
1,880892033E0	3,493520916E-1	9,724431038E0	8,303094506E-1	9,766064698E0
1,882088023E0	3,517449200E-1	9,707681656E0	8,279166222E-1	9,749269386E0
1,883283960E0	3,517449200E-1	9,698110580E0	8,350951076E-1	9,740352004E0
1,884479950E0	3,541377485E-1	9,717252731E0	8,446664214E-1	9,760321488E0
1,885675887E0	3,565305769E-1	9,734002113E0	8,518448472E-1	9,777706829E0
1,886871877E0	3,589234054E-1	9,729216576E0	8,590233326E-1	9,773658592E0
1,888067867E0	3,613162339E-1	9,719645500E0	8,542376757E-1	9,763799469E0
1,889263804E0	3,493520916E-1	9,719645500E0	8,590233326E-1	9,763783929E0
1,890459794E0	3,278166950E-1	9,717252731E0	8,709874153E-1	9,761715193E0
1,891655731E0	3,230310678E-1	9,702896118E0	8,853443861E-1	9,748557680E0
1,892851721E0	3,254238665E-1	9,700503349E0	9,020941257E-1	9,747791531E0
1,894047658E0	3,134597540E-1	9,707681656E0	9,140582681E-1	9,755656957E0
1,895243648E0	3,158525825E-1	9,712467194E0	9,188438654E-1	9,760945440E0
1,896439637E0	3,326023519E-1	9,698110580E0	9,212366939E-1	9,747443265E0
1,897635575E0	3,421736360E-1	9,686145782E0	9,212366939E-1	9,735870786E0
1,898831564E0	3,445664644E-1	9,676574707E0	9,355936646E-1	9,727803432E0
1,900027502E0	3,469592929E-1	9,669396400E0	9,547362328E-1	9,722609155E0
1,901223492E0	3,565305769E-1	9,662218094E0	9,738788009E-1	9,717716422E0
1,902419429E0	3,708875179E-1	9,655039787E0	9,810572863E-1	9,711839385E0
1,903615419E0	3,780659735E-1	9,652647018E0	9,762716293E-1	9,709255102E0
1,904811408E0	3,804588020E-1	9,652647018E0	9,667003751E-1	9,708390854E0
1,906007346E0	3,828516304E-1	9,655039787E0	9,571290612E-1	9,709915793E0
1,907203335E0	3,828516304E-1	9,652647018E0	9,451649189E-1	9,706364230E0
1,908399273E0	3,828516304E-1	9,657432556E0	9,260223508E-1	9,709278879E0
1,909595262E0	3,924229145E-1	9,659825325E0	8,997012973E-1	9,709566596E0
1,910791200E0	3,948157430E-1	9,655039787E0	8,829515576E-1	9,703364170E0
1,911987189E0	3,948157430E-1	9,659825325E0	8,638089895E-1	9,706403595E0
1,913183127E0	4,019941986E-1	9,664610863E0	8,398807645E-1	9,709361573E0
1,914379117E0	4,139583111E-1	9,669396400E0	8,087740541E-1	9,711987629E0
1,915575106E0	4,259224236E-1	9,671789169E0	7,752745152E-1	9,712155591E0
1,916771044E0	4,402793646E-1	9,669396400E0	7,393822074E-1	9,707613441E0
1,917967033E0	4,402793646E-1	9,674181938E0	7,106683254E-1	9,710236432E0
1,919162971E0	4,450650215E-1	9,693324089E0	6,915257573E-1	9,728145899E0
1,920358960E0	4,594219327E-1	9,705288887E0	6,604190469E-1	9,738575574E0
1,921554898E0	4,689932466E-1	9,710074425E0	6,340979934E-1	9,742052159E0
1,922750887E0	4,689932466E-1	9,722038269E0	6,149554253E-1	9,752751045E0
1,923946877E0	4,713860750E-1	9,731609344E0	5,862415433E-1	9,760640574E0
1,925142814E0	4,785645306E-1	9,726823807E0	5,647061467E-1	9,754948406E0
1,926338804E0	4,881358147E-1	9,722038269E0	5,503492355E-1	9,749830202E0
1,927534742E0	4,881358147E-1	9,731609344E0	5,288137794E-1	9,758183285E0
1,928730731E0	4,905286431E-1	9,743574142E0	5,168496966E-1	9,769595131E0
1,929926721E0	4,977070987E-1	9,745966911E0	5,120640397E-1	9,772092559E0
1,931122658E0	4,977070987E-1	9,748359680E0	5,096712112E-1	9,774353869E0
1,932318648E0	4,953143001E-1	9,745966911E0	5,144568682E-1	9,772096661E0
1,933514585E0	5,120640397E-1	9,748359680E0	5,192425251E-1	9,775599155E0
1,934710575E0	5,264210105E-1	9,760323524E0	5,192425251E-1	9,788291331E0
1,935906512E0	5,240281820E-1	9,765109062E0	5,072783828E-1	9,792307792E0
1,937102502E0	5,192425251E-1	9,757930756E0	5,096712112E-1	9,785018660E0
1,938298492E0	5,192425251E-1	9,762716293E0	5,335994363E-1	9,791065855E0
1,939494429E0	5,048855543E-1	9,765109062E0	5,575276613E-1	9,794033975E0
1,940690419E0	4,809573591E-1	9,757930756E0	5,742774606E-1	9,786640241E0
1,941886356E0	4,737788737E-1	9,750752449E0	5,838487148E-1	9,779699334E0
1,943082346E0	4,737788737E-1	9,743574142E0	5,886343718E-1	9,772829371E0
1,944278283E0	4,809573591E-1	9,750752449E0	5,958128572E-1	9,780771251E0
1,945474273E0	4,905286431E-1	9,760323524E0	6,053841114E-1	9,791374958E0
1,946670210E0	4,905286431E-1	9,772287369E0	6,101697683E-1	9,803597601E0
1,947866200E0	4,713860750E-1	9,786644936E0	6,149554253E-1	9,817270196E0
1,949062189E0	4,546363056E-1	9,791430473E0	6,173482537E-1	9,821401313E0
1,950258127E0	4,618147612E-1	9,786644936E0	6,149554253E-1	9,816815275E0
1,951454117E0	4,785645306E-1	9,789037704E0	6,221339107E-1	9,820454867E0
1,952650054E0	4,809573591E-1	9,798608780E0	6,508477330E-1	9,831971154E0
1,953846044E0	4,713860750E-1	9,789037704E0	6,771687865E-1	9,823747838E0
1,955041981E0	4,666004181E-1	9,781859398E0	6,963114142E-1	9,817705374E0
1,956237971E0	4,713860750E-1	9,774680138E0	7,226324677E-1	9,812684358E0
1,957433960E0	4,642075896E-1	9,767501831E0	7,417750359E-1	9,806620769E0
1,958629898E0	4,450650215E-1	9,753145218E0	7,657032609E-1	9,793274529E0
1,959825887E0	4,354937077E-1	9,736394882E0	7,920243144E-1	9,778258668E0
1,961021825E0	4,307080805E-1	9,736394882E0	8,063812256E-1	9,779220083E0
1,962217814E0	4,283152521E-1	9,743574142E0	8,303094506E-1	9,788263626E0
1,963413804E0	4,211367965E-1	9,743574142E0	8,518448472E-1	9,789802496E0
1,964609742E0	4,115654826E-1	9,734002113E0	8,638089895E-1	9,780917608E0
1,965805731E0	3,924229145E-1	9,741181374E0	8,685946465E-1	9,787699779E0
1,967001669E0	3,756731451E-1	9,769894600E0	8,638089895E-1	9,815199273E0
1,968197658E0	3,637090325E-1	9,796216011E0	8,494520187E-1	9,839700256E0
1,969393596E0	3,565305769E-1	9,801001549E0	8,350951076E-1	9,842973598E0
1,970589585E0	3,613162339E-1	9,793823242E0	8,183453679E-1	9,834592633E0
1,971785523E0	3,637090325E-1	9,796216011E0	7,848458290E-1	9,834333499E0
1,972981512E0	3,589234054E-1	9,805787086E0	7,513462901E-1	9,841077565E0
1,974177502E0	3,517449200E-1	9,810572624E0	7,250252366E-1	9,843613224E0
1,975373439E0	3,373879790E-1	9,812965393E0	7,082754970E-1	9,844276237E0
1,976569429E0	3,302095234E-1	9,803394318E0	7,034898400E-1	9,834148485E0
1,977765367E0	3,302095234E-1	9,793823242E0	6,963114142E-1	9,824095969E0
1,978961356E0	3,302095234E-1	9,793823242E0	6,963114142E-1	9,824095969E0
1,980157294E0	3,349951804E-1	9,786644936E0	7,034898400E-1	9,817613703E0
1,981353283E0	3,326023519E-1	9,779465675E0	7,082754970E-1	9,810720025E0
1,982549273E0	3,230310678E-1	9,777072906E0	7,178468108E-1	9,808710809E0
1,983745210E0	3,326023519E-1	9,781859398E0	7,250252366E-1	9,814329279E0
1,984941200E0	3,469592929E-1	9,786644936E0	7,250252366E-1	9,819595788E0
1,986137137E0	3,493520916E-1	9,779465675E0	7,298108935E-1	9,812880297E0
1,987333127E0	3,469592929E-1	9,777072906E0	7,345965505E-1	9,810767934E0
1,988529064E0	3,349951804E-1	9,784252167E0	7,298108935E-1	9,817150104E0
1,989725054E0	3,254238665E-1	9,796216011E0	7,202396393E-1	9,828046294E0
1,990921044E0	3,373879790E-1	9,805787086E0	7,130611539E-1	9,837466505E0
1,992116981E0	3,469592929E-1	9,820143700E0	7,010970116E-1	9,851250685E0
1,993312971E0	3,373879790E-1	9,829715729E0	6,819544435E-1	9,859117801E0
1,994508908E0	3,397808075E-1	9,824930191E0	6,652047038E-1	9,853283795E0
1,995704898E0	3,541377485E-1	9,824930191E0	6,484549642E-1	9,852672767E0
1,996900887E0	3,613162339E-1	9,827322960E0	6,317051649E-1	9,854231446E0
1,998096825E0	3,517449200E-1	9,834501266E0	6,221339107E-1	9,860435602E0
1,999292814E0	3,278166950E-1	9,839286804E0	6,149554253E-1	9,863934244E0
2,000488752E0	3,230310678E-1	9,839286804E0	6,005984545E-1	9,862891685E0
2,001684742E0	3,206382394E-1	9,844072342E0	5,934200287E-1	9,867153413E0
2,002880679E0	3,086741269E-1	9,851250648E0	5,958128572E-1	9,874077781E0
2,004076669E0	2,943171859E-1	9,853643417E0	5,886343718E-1	9,875596267E0
2,005272606E0	2,871387303E-1	9,856036186E0	5,766702294E-1	9,877066696E0
2,006468596E0	2,919243574E-1	9,858428955E0	5,742774606E-1	9,879455243E0
2,007664585E0	2,895315289E-1	9,860821724E0	5,742774606E-1	9,881772522E0
2,008860523E0	2,727817893E-1	9,863214493E0	5,647061467E-1	9,883132250E0
2,010056512E0	2,656033039E-1	9,872786522E0	5,599204898E-1	9,892217637E0
2,011252450E0	2,656033039E-1	9,887143135E0	5,647061467E-1	9,906817729E0
2,012448439E0	2,656033039E-1	9,896714211E0	5,647061467E-1	9,916369815E0
2,013644377E0	2,679961324E-1	9,908679008E0	5,575276613E-1	9,927969516E0
2,014840367E0	2,679961324E-1	9,913464546E0	5,503492355E-1	9,932345419E0
2,016036356E0	2,608176768E-1	9,908679008E0	5,503492355E-1	9,927377792E0
2,017232294E0	2,536391914E-1	9,906285286E0	5,407779217E-1	9,924276385E0
2,018428283E0	2,560320199E-1	9,901499748E0	5,216353536E-1	9,918535835E0
2,019624221E0	2,632105052E-1	9,891928673E0	5,096712112E-1	9,908546684E0
2,020820210E0	2,679961324E-1	9,877572060E0	5,096712112E-1	9,894342649E0
2,022016148E0	2,751746178E-1	9,868000984E0	5,168496966E-1	9,885357763E0
2,023212137E0	2,823530734E-1	9,863214493E0	5,168496966E-1	9,880782206E0
2,024408127E0	2,847459018E-1	9,858428955E0	5,168496966E-1	9,876073881E0
2,025604064E0	2,967100143E-1	9,863214493E0	5,072783828E-1	9,880706874E0
2,026800054E0	3,014956415E-1	9,863214493E0	4,953143001E-1	9,880244734E0
