"Time (s)"	"Acceleration x (m/s^2)"	"Acceleration y (m/s^2)"	"Acceleration z (m/s^2)"	"Absolute acceleration (m/s^2)"
3,604391300E-2	-2,656033039E-1	1,013360405E1	1,801795483E0	1,029596732E1
3,723990300E-2	-2,632105052E-1	1,012881851E1	1,746760488E0	1,028170299E1
3,843589200E-2	-2,656033039E-1	1,013121128E1	1,677368641E0	1,027256310E1
3,963188200E-2	-2,679961324E-1	1,014078236E1	1,617548108E0	1,027247539E1
4,082787100E-2	-2,799602449E-1	1,014556789E1	1,579262972E0	1,027156255E1
4,202386100E-2	-2,871387303E-1	1,013838959E1	1,545763373E0	1,025957000E1
4,321979800E-2	-2,919243574E-1	1,013838959E1	1,526620865E0	1,025683843E1
4,441578800E-2	-3,134597540E-1	1,014556789E1	1,505085468E0	1,026138817E1
4,561177800E-2	-3,302095234E-1	1,013838959E1	1,485942841E0	1,025202457E1
4,680776700E-2	-3,421736360E-1	1,013360405E1	1,478764415E0	1,024664618E1
4,800375700E-2	-3,756731451E-1	1,014078236E1	1,481157184E0	1,025526322E1
4,919974600E-2	-3,972085714E-1	1,013838959E1	1,483550072E0	1,025405475E1
5,039573600E-2	-4,115654826E-1	1,013360405E1	1,488335729E0	1,025058342E1
5,159172500E-2	-4,307080805E-1	1,013360405E1	1,507478237E0	1,025416652E1
5,278766300E-2	-4,450650215E-1	1,012164021E1	1,526620865E0	1,024579204E1
5,398365300E-2	-4,546363056E-1	1,011446095E1	1,543370605E0	1,024163108E1
5,517964200E-2	-4,642075896E-1	1,011446095E1	1,562513232E0	1,024496249E1
5,637563200E-2	-4,546363056E-1	1,009531879E1	1,579262972E0	1,022820743E1
5,757162100E-2	-4,283152521E-1	1,007617569E1	1,600798368E0	1,021152907E1
5,876761100E-2	-4,163511395E-1	1,007617569E1	1,619940877E0	1,021405273E1
5,996360000E-2	-4,163511395E-1	1,007378292E1	1,634297848E0	1,021397964E1
6,115959000E-2	-4,067798555E-1	1,006660461E1	1,643869162E0	1,020805095E1
6,235558000E-2	-3,876372576E-1	1,006421185E1	1,651047587E0	1,020610508E1
6,355151700E-2	-3,708875179E-1	1,004746246E1	1,648654819E0	1,018857803E1
6,474750700E-2	-3,661018610E-1	1,002831936E1	1,634297848E0	1,016720951E1
6,594349600E-2	-3,637090325E-1	1,003071213E1	1,617548108E0	1,016680539E1
6,713948600E-2	-3,517449200E-1	1,004267693E1	1,598405480E0	1,017516508E1
6,833547500E-2	-3,326023519E-1	1,004985523E1	1,579262972E0	1,017861906E1
6,953146500E-2	-3,326023519E-1	1,005464077E1	1,576870084E0	1,018297327E1
7,072745500E-2	-3,397808075E-1	1,006181908E1	1,581655741E0	1,019103964E1
7,192344400E-2	-3,469592929E-1	1,007378292E1	1,586441398E0	1,020383650E1
7,311938200E-2	-3,684946895E-1	1,008096218E1	1,593619823E0	1,021279643E1
7,431537100E-2	-3,900300860E-1	1,008574772E1	1,607976794E0	1,022056847E1
7,551136100E-2	-4,043870270E-1	1,008335495E1	1,627119422E0	1,022179502E1
7,670735000E-2	-4,187439680E-1	1,008096218E1	1,651047587E0	1,022384972E1
7,790334000E-2	-4,283152521E-1	1,008574772E1	1,663011789E0	1,023090266E1
7,909933000E-2	-4,331009090E-1	1,010249710E1	1,682154298E0	1,025073983E1
8,029531900E-2	-4,426721931E-1	1,010488987E1	1,710868239E0	1,025825658E1
8,149130900E-2	-4,594219327E-1	1,008814049E1	1,730010748E0	1,024571053E1
8,268729800E-2	-4,713860750E-1	1,007378292E1	1,746760488E0	1,023496357E1
8,388323600E-2	-4,833501875E-1	1,007617569E1	1,756331801E0	1,023951392E1
8,507922500E-2	-4,953143001E-1	1,008096218E1	1,756331801E0	1,024479556E1
8,627521500E-2	-4,977070987E-1	1,007378292E1	1,756331801E0	1,023784724E1
8,747120500E-2	-5,048855543E-1	1,006181908E1	1,756331801E0	1,022642723E1
8,866719400E-2	-5,048855543E-1	1,006660461E1	1,751546144E0	1,023031533E1
8,986318400E-2	-5,024927258E-1	1,007378292E1	1,751546144E0	1,023726112E1
9,105917300E-2	-4,953143001E-1	1,007856941E1	1,753939033E0	1,024203104E1
9,225511100E-2	-4,881358147E-1	1,009053326E1	1,746760488E0	1,025223440E1
9,345110000E-2	-4,977070987E-1	1,009053326E1	1,727617979E0	1,024945060E1
9,464709000E-2	-5,168496966E-1	1,008814049E1	1,718046665E0	1,024643335E1
9,584308000E-2	-5,383850932E-1	1,010728264E1	1,708475351E0	1,026478976E1
9,703906900E-2	-5,599204898E-1	1,012881851E1	1,689332843E0	1,028398371E1
9,823505900E-2	-5,551348329E-1	1,014078236E1	1,670190215E0	1,029238441E1
9,943104800E-2	-5,407779217E-1	1,015513897E1	1,653440475E0	1,030306526E1
1,006270380E-1	-5,407779217E-1	1,017667484E1	1,636690736E0	1,032162333E1
1,018230280E-1	-5,551348329E-1	1,020060253E1	1,624726534E0	1,034409025E1
1,030189650E-1	-5,838487148E-1	1,021735287E1	1,617548108E0	1,036106369E1
1,042149550E-1	-5,958128572E-1	1,022931671E1	1,600798368E0	1,037094348E1
1,054109440E-1	-5,910272002E-1	1,025324535E1	1,584048629E0	1,039170648E1
1,066069340E-1	-5,934200287E-1	1,027238750E1	1,569691658E0	1,040855534E1
1,078029230E-1	-6,005984545E-1	1,028435135E1	1,550549030E0	1,041790783E1
1,089989130E-1	-6,005984545E-1	1,029392338E1	1,524227977E0	1,042347581E1
1,101949030E-1	-5,934200287E-1	1,030588722E1	1,500299811E0	1,043141209E1
1,113908400E-1	-5,886343718E-1	1,032024384E1	1,471585870E0	1,044123978E1
1,125868300E-1	-5,766702294E-1	1,033460140E1	1,430907965E0	1,044911634E1
1,137828190E-1	-5,599204898E-1	1,035374355E1	1,395015597E0	1,046229349E1
1,149788090E-1	-5,312066078E-1	1,036092186E1	1,363908887E0	1,046380092E1
1,161747980E-1	-5,024927258E-1	1,037527943E1	1,325623751E0	1,047168565E1
1,173707880E-1	-4,761717021E-1	1,038485050E1	1,287338614E0	1,047516588E1
1,185667780E-1	-4,426721931E-1	1,038724327E1	1,249053478E0	1,047143333E1
1,197627670E-1	-4,283152521E-1	1,039202881E1	1,220339537E0	1,047219869E1
1,209587570E-1	-4,283152521E-1	1,039920712E1	1,191625714E0	1,047601711E1
1,221546940E-1	-4,259224236E-1	1,041356373E1	1,160519004E0	1,048668316E1
1,233506840E-1	-4,235295951E-1	1,041595650E1	1,136590719E0	1,048634186E1
1,245466730E-1	-4,139583111E-1	1,042313576E1	1,124626637E0	1,049180183E1
1,257426630E-1	-4,091726840E-1	1,043749237E1	1,107876897E0	1,050409732E1
1,269386530E-1	-4,187439680E-1	1,044945621E1	1,088734269E0	1,051436275E1
1,281346420E-1	-4,211367965E-1	1,046859932E1	1,081555843E0	1,053274375E1
1,293306320E-1	-4,163511395E-1	1,048774147E1	1,074377418E0	1,055084623E1
1,305266210E-1	-4,043870270E-1	1,050209904E1	1,064806104E0	1,056368426E1
1,317226110E-1	-3,924229145E-1	1,051406288E1	1,052842021E0	1,057392975E1
1,329185480E-1	-3,852444589E-1	1,052602673E1	1,050449133E0	1,058532453E1
1,341145380E-1	-3,732803464E-1	1,053081226E1	1,060020447E0	1,059060850E1
1,353105280E-1	-3,469592929E-1	1,052124119E1	1,071984529E0	1,058140103E1
1,365065170E-1	-3,110669553E-1	1,051167011E1	1,076770186E0	1,057125372E1
1,377025070E-1	-2,799602449E-1	1,050927734E1	1,081555843E0	1,056849332E1
1,388984960E-1	-2,440679073E-1	1,050449181E1	1,095912814E0	1,056432403E1
1,400944860E-1	-1,914258152E-1	1,050688457E1	1,117448211E0	1,056787386E1
1,412904750E-1	-1,459621787E-1	1,050449181E1	1,131805062E0	1,056629716E1
1,424864130E-1	-1,220339537E-1	1,049013424E1	1,143769264E0	1,055300984E1
1,436824030E-1	-8,614161611E-2	1,047817039E1	1,162911773E0	1,054285725E1
1,448783920E-1	-3,828516230E-2	1,048056316E1	1,172483087E0	1,054601283E1
1,460743820E-1	-4,785645287E-3	1,049731255E1	1,184447169E0	1,056392487E1
1,472703710E-1	7,178467698E-3	1,049252701E1	1,201196909E0	1,056106285E1
1,484663610E-1	2,392822690E-2	1,048774147E1	1,225125194E0	1,055908260E1
1,496623500E-1	5,024927482E-2	1,049970531E1	1,249053478E0	1,057385792E1
1,508583400E-1	6,939185411E-2	1,050449181E1	1,263410330E0	1,058042386E1
1,520542780E-1	7,896314561E-2	1,051167011E1	1,284945726E0	1,059020912E1
1,532502670E-1	8,135596663E-2	1,052602673E1	1,323230863E0	1,060918457E1
1,544462570E-1	8,135596663E-2	1,054038334E1	1,361516118E0	1,062826542E1
1,556422460E-1	7,896314561E-2	1,054756260E1	1,402194023E0	1,064065130E1
1,568382360E-1	6,939185411E-2	1,055952644E1	1,440479279E0	1,065755106E1
1,580342250E-1	5,503492057E-2	1,056909752E1	1,478764415E0	1,067218794E1
1,592302150E-1	5,503492057E-2	1,057149029E1	1,514656782E0	1,067958899E1
1,604262050E-1	6,460621208E-2	1,058106136E1	1,545763373E0	1,069356900E1
1,616221420E-1	6,460621208E-2	1,059063339E1	1,586441398E0	1,070899089E1
1,628181320E-1	6,939185411E-2	1,058824062E1	1,634297848E0	1,071385011E1
1,640141210E-1	9,092725813E-2	1,058345413E1	1,686939955E0	1,071744072E1
1,652101110E-1	1,124626622E-1	1,058345413E1	1,741974831E0	1,072644515E1
1,664061000E-1	1,339980662E-1	1,057627583E1	1,794616938E0	1,072829044E1
1,676020900E-1	1,507478207E-1	1,056191921E1	1,840080619E0	1,072206879E1
1,687980800E-1	1,722832322E-1	1,054995537E1	1,866401672E0	1,071516192E1
1,699940690E-1	1,986042857E-1	1,053320503E1	1,887937069E0	1,070290420E1
1,711900070E-1	2,368894368E-1	1,052363396E1	1,919043779E0	1,069979987E1
1,723859960E-1	2,823530734E-1	1,051645565E1	1,942971945E0	1,069816352E1
1,735819860E-1	3,158525825E-1	1,050688457E1	1,957328916E0	1,069231139E1
1,747779750E-1	3,326023519E-1	1,049970531E1	1,981257200E0	1,069017381E1
1,759739650E-1	3,541377485E-1	1,049252701E1	2,009970903E0	1,068917769E1
1,771699550E-1	3,828516304E-1	1,048774147E1	2,026720762E0	1,068863385E1
1,783659440E-1	4,019941986E-1	1,047817039E1	2,041077614E0	1,068268000E1
1,795619340E-1	4,163511395E-1	1,047099209E1	2,065006018E0	1,068078993E1
1,807578710E-1	4,498506486E-1	1,046620655E1	2,088934183E0	1,068211080E1
1,819538610E-1	4,761717021E-1	1,045184898E1	2,112862349E0	1,067389685E1
1,831498500E-1	5,024927258E-1	1,044227791E1	2,141576290E0	1,067145800E1
1,843458400E-1	5,383850932E-1	1,043988514E1	2,172683001E0	1,067715372E1
1,855418300E-1	5,599204898E-1	1,044945621E1	2,210968018E0	1,069546753E1
1,867378190E-1	5,838487148E-1	1,046142101E1	2,256431818E0	1,071791460E1
1,879338090E-1	6,053841114E-1	1,046142101E1	2,285145521E0	1,072519042E1
1,891297980E-1	6,221339107E-1	1,046620655E1	2,306680918E0	1,073542300E1
1,903257880E-1	6,388836503E-1	1,047338486E1	2,333002090E0	1,074908654E1
1,915217250E-1	6,675975323E-1	1,046620655E1	2,361716032E0	1,075011017E1
1,927177150E-1	7,010970116E-1	1,044706345E1	2,380858421E0	1,073783770E1
1,939137050E-1	7,274180651E-1	1,043031406E1	2,383251429E0	1,072382748E1
1,951096940E-1	7,657032609E-1	1,042074299E1	2,385644197E0	1,071771823E1
1,963056840E-1	7,968099117E-1	1,040877819E1	2,388036966E0	1,070888836E1
1,975016730E-1	8,183453679E-1	1,040399265E1	2,383251429E0	1,070479517E1
1,986976630E-1	8,327022791E-1	1,039920712E1	2,376072884E0	1,069965532E1
1,998936000E-1	8,398807645E-1	1,038963604E1	2,366501570E0	1,068879163E1
2,010895900E-1	8,398807645E-1	1,037527943E1	2,347358942E0	1,067060996E1
2,022855800E-1	8,494520187E-1	1,035135078E1	2,325823545E0	1,064337761E1
2,034815690E-1	8,638089895E-1	1,034417248E1	2,311466694E0	1,063442281E1
2,046775590E-1	8,733802438E-1	1,035613632E1	2,301895380E0	1,064476749E1
2,058735480E-1	8,829515576E-1	1,035852909E1	2,294716835E0	1,064633523E1
2,070695380E-1	8,901300430E-1	1,036092186E1	2,285145521E0	1,064720261E1
2,082655280E-1	8,877372146E-1	1,036331463E1	2,275574446E0	1,064728165E1
2,094614650E-1	8,973084688E-1	1,034895802E1	2,261217356E0	1,063104879E1
2,106574550E-1	9,140582681E-1	1,033220863E1	2,246860504E0	1,061312489E1
2,118534440E-1	9,308080077E-1	1,032742214E1	2,246860504E0	1,060992148E1
2,130494340E-1	9,499505758E-1	1,032024384E1	2,237289190E0	1,060260826E1
2,142454230E-1	9,667003751E-1	1,030588722E1	2,222932339E0	1,058712658E1
2,154414130E-1	9,786644578E-1	1,028913784E1	2,218146563E0	1,057091840E1
2,166374030E-1	9,858429432E-1	1,026999474E1	2,213361025E0	1,055194983E1
2,178333920E-1	9,906286001E-1	1,025803089E1	2,201396942E0	1,053824897E1
2,190293300E-1	1,000199914E0	1,024845982E1	2,187039852E0	1,052684529E1
2,202253190E-1	1,016949654E0	1,024128056E1	2,175075769E0	1,051898135E1
2,214213090E-1	1,028913736E0	1,022692394E1	2,160718918E0	1,050320632E1
2,226172980E-1	1,021735311E0	1,020299530E1	2,148754835E0	1,047674584E1
2,238132880E-1	1,004985452E0	1,017906761E1	2,143969059E0	1,045083808E1
2,250092780E-1	9,906286001E-1	1,016231823E1	2,151147604E0	1,043462950E1
2,262052670E-1	9,906286001E-1	1,015035343E1	2,160718918E0	1,042495688E1
2,274012570E-1	9,834501147E-1	1,014556789E1	2,163111687E0	1,042011392E1
2,285972460E-1	9,690931439E-1	1,012642574E1	2,172683001E0	1,040212436E1
2,297931840E-1	9,547362328E-1	1,010249710E1	2,189432621E0	1,038102038E1
2,309891730E-1	9,475577474E-1	1,009053326E1	2,201396942E0	1,037125236E1
2,321851630E-1	9,475577474E-1	1,008096218E1	2,213361025E0	1,036448895E1
2,333811530E-1	9,355936646E-1	1,007617569E1	2,222932339E0	1,036079535E1
2,345771420E-1	9,164510965E-1	1,007856941E1	2,225325108E0	1,036192626E1
2,357731320E-1	9,020941257E-1	1,007856941E1	2,222932339E0	1,036015267E1
2,369691210E-1	8,901300430E-1	1,007856941E1	2,220539331E0	1,035860453E1
2,381651110E-1	8,853443861E-1	1,007617569E1	2,225325108E0	1,035689254E1
2,393610480E-1	8,757730722E-1	1,007139015E1	2,225325108E0	1,035142260E1
2,405570380E-1	8,662018180E-1	1,007378292E1	2,222932339E0	1,035243141E1
2,417530280E-1	8,685946465E-1	1,007617569E1	2,215753794E0	1,035342156E1
2,429490170E-1	8,685946465E-1	1,007139015E1	2,213361025E0	1,034825218E1
2,441450070E-1	8,638089895E-1	1,007139015E1	2,208575249E0	1,034682899E1
2,453409960E-1	8,494520187E-1	1,007139015E1	2,210968018E0	1,034615136E1
2,465369860E-1	8,303094506E-1	1,006899738E1	2,222932339E0	1,034483206E1
2,477329750E-1	8,231309652E-1	1,006660461E1	2,222932339E0	1,034192928E1
2,489289130E-1	8,327022791E-1	1,005942631E1	2,220539331E0	1,033519451E1
2,501249030E-1	8,207381964E-1	1,004746246E1	2,230110645E0	1,032465528E1
2,513208920E-1	8,015955687E-1	1,003310490E1	2,227717876E0	1,030866026E1
2,525168820E-1	7,968099117E-1	1,001396275E1	2,225325108E0	1,028914125E1
2,537128710E-1	8,015955687E-1	9,997213364E0	2,225325108E0	1,027321285E1
2,549088610E-1	8,015955687E-1	9,978070259E0	2,218146563E0	1,025302959E1
2,561048500E-1	8,015955687E-1	9,949356079E0	2,215753794E0	1,022456878E1
2,573008400E-1	8,015955687E-1	9,925428391E0	2,225325108E0	1,020336984E1
2,584968300E-1	7,824530005E-1	9,911071777E0	2,232503414E0	1,018948713E1
2,596927670E-1	7,561319470E-1	9,899106979E0	2,234896421E0	1,017638524E1
2,608887570E-1	7,393822074E-1	9,887143135E0	2,237289190E0	1,016404193E1
2,620847460E-1	7,274180651E-1	9,875179291E0	2,234896421E0	1,015101301E1
2,632807360E-1	7,202396393E-1	9,858428955E0	2,234896421E0	1,013420587E1
2,644766730E-1	7,202396393E-1	9,844072342E0	2,230110645E0	1,011918470E1
2,656726110E-1	7,274180651E-1	9,832108498E0	2,230110645E0	1,010806055E1
2,668687050E-1	7,345965505E-1	9,820143700E0	2,237289190E0	1,009853045E1
2,680646940E-1	7,441678643E-1	9,798608780E0	2,239681959E0	1,007882409E1
2,692606320E-1	7,633104324E-1	9,777072906E0	2,244467735E0	1,006038930E1
2,704566210E-1	7,848458290E-1	9,760323524E0	2,249253273E0	1,004684222E1
2,716526110E-1	7,944171429E-1	9,738788605E0	2,242074728E0	1,002506864E1
2,728486000E-1	8,039883971E-1	9,712467194E0	2,230110645E0	9,997590201E0
2,740445900E-1	8,183453679E-1	9,683753014E0	2,218146563E0	9,968196213E0
2,752405800E-1	8,327022791E-1	9,652647018E0	2,203789711E0	9,935978897E0
2,764365690E-1	8,446664214E-1	9,623932838E0	2,187039852E0	9,905386815E0
2,776325070E-1	8,446664214E-1	9,592825890E0	2,172683001E0	9,871996826E0
2,788284960E-1	8,494520187E-1	9,559326172E0	2,163111687E0	9,837750645E0
2,800244860E-1	8,614161611E-1	9,530612946E0	2,153540373E0	9,808789786E0
2,812204750E-1	8,709874153E-1	9,506684303E0	2,163111687E0	9,788499256E0
2,824164650E-1	8,638089895E-1	9,487542152E0	2,172683001E0	9,771395677E0
2,836124550E-1	8,542376757E-1	9,473184586E0	2,170290232E0	9,756080560E0
2,848084440E-1	8,398807645E-1	9,468399048E0	2,160718918E0	9,748060652E0
2,860044340E-1	8,279166222E-1	9,468399048E0	2,155933142E0	9,745977333E0
2,872004230E-1	8,350951076E-1	9,454042435E0	2,146361828E0	9,730527801E0
2,883963610E-1	8,327022791E-1	9,442078590E0	2,124826431E0	9,713965645E0
2,895923500E-1	8,207381964E-1	9,432506561E0	2,112862349E0	9,701029766E0
2,907883400E-1	8,087740541E-1	9,422935486E0	2,096112728E0	9,687079911E0
2,919843300E-1	8,063812256E-1	9,410971642E0	2,067398787E0	9,669062812E0
2,931803190E-1	8,231309652E-1	9,403793335E0	2,041077614E0	9,657891669E0
2,943763090E-1	8,398807645E-1	9,391828537E0	2,014756680E0	9,642151598E0
2,955722980E-1	8,518448472E-1	9,379864693E0	1,978864312E0	9,624105427E0
2,967682880E-1	8,709874153E-1	9,372686386E0	1,940579176E0	9,611020586E0
2,979642250E-1	8,901300430E-1	9,367900848E0	1,909472466E0	9,601873926E0
2,991602150E-1	8,925228715E-1	9,348757744E0	1,880758643E0	9,577740939E0
3,003562050E-1	9,020941257E-1	9,327222824E0	1,854437590E0	9,552476024E0
3,015521940E-1	9,068797827E-1	9,329615593E0	1,818545222E0	9,548364508E0
3,027481840E-1	9,068797827E-1	9,327222824E0	1,782652855E0	9,539254046E0
3,039441730E-1	9,068797827E-1	9,317651749E0	1,749153376E0	9,523686397E0
3,051401630E-1	9,020941257E-1	9,324830055E0	1,718046665E0	9,524595200E0
3,063361530E-1	8,997012973E-1	9,336793900E0	1,691725612E0	9,531375467E0
3,075320900E-1	8,877372146E-1	9,346364975E0	1,655833244E0	9,533330968E0
3,087280800E-1	8,733802438E-1	9,346364975E0	1,617548108E0	9,525428766E0
3,099240690E-1	8,662018180E-1	9,343972206E0	1,581655741E0	9,516394121E0
3,111200590E-1	8,685946465E-1	9,343972206E0	1,555334687E0	9,512273085E0
3,123160480E-1	8,685946465E-1	9,346364975E0	1,529013634E0	9,510356334E0
3,135120380E-1	8,398807645E-1	9,355937004E0	1,505085468E0	9,513371599E0
3,147080280E-1	8,111668825E-1	9,358329773E0	1,481157184E0	9,509477086E0
3,159040170E-1	7,920243144E-1	9,358329773E0	1,464407444E0	9,505268424E0
3,171000070E-1	7,800601721E-1	9,363115311E0	1,442872047E0	9,505698393E0
3,182959440E-1	7,680960894E-1	9,360722542E0	1,423729420E0	9,499479121E0
3,194919340E-1	7,657032609E-1	9,353543282E0	1,411765337E0	9,490424373E0
3,206879230E-1	7,585247755E-1	9,343972206E0	1,390229940E0	9,477231437E0
3,218839130E-1	7,393822074E-1	9,327222824E0	1,366301775E0	9,455715319E0
3,230799030E-1	7,250252366E-1	9,315258980E0	1,339980721E0	9,439028540E0
3,242758920E-1	7,106683254E-1	9,298508644E0	1,320838094E0	9,418700852E0
3,254718820E-1	6,867401004E-1	9,286544800E0	1,306481123E0	9,403106891E0
3,266678710E-1	6,652047038E-1	9,272188187E0	1,296909928E0	9,386050630E0
3,278638090E-1	6,412764788E-1	9,262616158E0	1,292124271E0	9,374266837E0
3,290597980E-1	6,293123364E-1	9,262616158E0	1,282552958E0	9,372141388E0
3,302557880E-1	6,269195080E-1	9,245866776E0	1,275374413E0	9,354446023E0
3,314517780E-1	6,197410822E-1	9,241081238E0	1,270588875E0	9,348585858E0
3,326477670E-1	6,077769399E-1	9,245866776E0	1,258624673E0	9,350913394E0
3,338437570E-1	5,982056856E-1	9,236295700E0	1,246660590E0	9,339227534E0
3,350397460E-1	5,814558864E-1	9,219545364E0	1,249053478E0	9,321922670E0
3,362356840E-1	5,527420044E-1	9,209974289E0	1,249053478E0	9,310708067E0
3,374316730E-1	5,288137794E-1	9,207581520E0	1,253839016E0	9,307594412E0
3,386276630E-1	5,144568682E-1	9,193224907E0	1,270588875E0	9,294861276E0
3,398236530E-1	5,000999570E-1	9,181260109E0	1,284945726E0	9,284219013E0
3,410196420E-1	4,833501875E-1	9,176474571E0	1,294517040E0	9,279929274E0
3,422156320E-1	4,761717021E-1	9,166903496E0	1,316052437E0	9,273125320E0
3,434116210E-1	4,642075896E-1	9,152546883E0	1,330409408E0	9,260377547E0
3,446076110E-1	4,474578202E-1	9,135796547E0	1,347159147E0	9,245422371E0
3,458035480E-1	4,354937077E-1	9,126225471E0	1,368694544E0	9,238558918E0
3,469995380E-1	4,235295951E-1	9,111868858E0	1,385444283E0	9,226320354E0
3,481955280E-1	4,115654826E-1	9,087940216E0	1,402194023E0	9,204683134E0
3,493915170E-1	4,019941986E-1	9,083154678E0	1,416550994E0	9,201734345E0
3,505875070E-1	3,900300860E-1	9,071190834E0	1,426122308E0	9,190889590E0
3,517834960E-1	3,852444589E-1	9,047262192E0	1,440479279E0	9,169315515E0
3,529794860E-1	3,900300860E-1	9,037691116E0	1,452443361E0	9,161963540E0
3,541754750E-1	3,876372576E-1	9,040083885E0	1,469193101E0	9,166891930E0
3,553714650E-1	3,661018610E-1	9,042476654E0	1,493121386E0	9,172231249E0
3,565674030E-1	3,493520916E-1	9,037691116E0	1,517049551E0	9,170787695E0
3,577633920E-1	3,541377485E-1	9,035298347E0	1,543370605E0	9,173005102E0
3,589593820E-1	3,637090325E-1	9,032905579E0	1,557727575E0	9,173449877E0
3,601553710E-1	3,732803464E-1	9,028120041E0	1,564906001E0	9,170344622E0
3,613513610E-1	3,756731451E-1	9,018548965E0	1,584048629E0	9,164309347E0
3,625473500E-1	3,637090325E-1	9,011369705E0	1,605584025E0	9,160511355E0
3,637433400E-1	3,541377485E-1	9,011369705E0	1,624726534E0	9,163510998E0
3,649392780E-1	3,637090325E-1	9,018548965E0	1,643869162E0	9,174356409E0
3,661352670E-1	3,684946895E-1	9,018548965E0	1,655833244E0	9,176698617E0
3,673312570E-1	3,684946895E-1	9,016156197E0	1,663011789E0	9,175645433E0
3,685272460E-1	3,756731451E-1	9,008976936E0	1,677368641E0	9,171497223E0
3,697232360E-1	3,804588020E-1	8,989834785E0	1,682154298E0	9,153770887E0
3,709192250E-1	3,780659735E-1	8,977870941E0	1,677368641E0	9,141042942E0
3,721152150E-1	3,732803464E-1	8,977870941E0	1,677368641E0	9,140846263E0
3,733112050E-1	3,613162339E-1	8,973084450E0	1,679761529E0	9,136103806E0
3,745071940E-1	3,445664644E-1	8,970691681E0	1,684547186E0	9,133987875E0
3,757031320E-1	3,445664644E-1	8,975478172E0	1,691725612E0	9,140014771E0
3,768991210E-1	3,397808075E-1	8,973084450E0	1,701296926E0	9,139261828E0
3,780951110E-1	3,182454109E-1	8,968298912E0	1,713261008E0	9,136023686E0
3,792911000E-1	3,086741269E-1	8,973084450E0	1,722832322E0	9,142192049E0
3,804870900E-1	3,158525825E-1	8,982656479E0	1,727617979E0	9,152734245E0
3,816830800E-1	3,158525825E-1	8,989834785E0	1,737189293E0	9,161589325E0
3,828790690E-1	3,110669553E-1	8,999405861E0	1,751546144E0	9,173547972E0
3,840750590E-1	3,110669553E-1	9,004191399E0	1,763510346E0	9,180533434E0
3,852709960E-1	3,134597540E-1	8,994620323E0	1,770688772E0	9,172610888E0
3,864669860E-1	3,302095234E-1	8,980263710E0	1,777867198E0	9,160512344E0
3,876629750E-1	3,421736360E-1	8,970691681E0	1,792224169E0	9,154368329E0
3,888589650E-1	3,397808075E-1	8,961120605E0	1,808973908E0	9,148197642E0
3,900549550E-1	3,397808075E-1	8,946763992E0	1,816152334E0	9,135559437E0
3,912509440E-1	3,469592929E-1	8,937192917E0	1,818545222E0	9,126932930E0
3,924469340E-1	3,541377485E-1	8,927620888E0	1,828116536E0	9,119749905E0
3,936429230E-1	3,493520916E-1	8,915657043E0	1,835294962E0	9,109297174E0
3,948389130E-1	3,349951804E-1	8,903693199E0	1,840080619E0	9,098014676E0
3,960348500E-1	3,326023519E-1	8,901300430E0	1,842473388E0	9,096069583E0
3,972308400E-1	3,254238665E-1	8,910871506E0	1,847259045E0	9,106146148E0
3,984268300E-1	3,134597540E-1	8,920442581E0	1,859223247E0	9,117525100E0
3,996228190E-1	3,062812984E-1	8,930013657E0	1,866401672E0	9,128110831E0
4,008188090E-1	3,038884699E-1	8,946763992E0	1,875972986E0	9,146376812E0
4,020147980E-1	3,062812984E-1	8,958727837E0	1,892722726E0	9,161605318E0
4,032107880E-1	3,062812984E-1	8,951549530E0	1,899901152E0	9,156072936E0
4,044067780E-1	2,967100143E-1	8,937192917E0	1,911865234E0	9,144215808E0
4,056027150E-1	2,775674164E-1	8,934800148E0	1,933400750E0	9,145804274E0
4,067987050E-1	2,608176768E-1	8,927620888E0	1,945364833E0	9,140836117E0
4,079946940E-1	2,512463629E-1	8,927620888E0	1,959721804E0	9,143634343E0
4,091906840E-1	2,392822653E-1	8,920442581E0	1,974078655E0	9,139394859E0
4,103866730E-1	2,297109663E-1	8,903693199E0	1,986042738E0	9,125397825E0
4,115826630E-1	2,249253243E-1	8,882157326E0	1,998006940E0	9,106884313E0
4,127786530E-1	2,177468538E-1	8,870193481E0	2,007578135E0	9,097148787E0
4,139746420E-1	2,009970993E-1	8,872586250E0	2,019542217E0	9,101743645E0
4,151705800E-1	2,033899277E-1	8,879764557E0	2,017149448E0	9,108264266E0
4,163665690E-1	2,057827413E-1	8,891729355E0	2,019542217E0	9,120512498E0
4,175625590E-1	2,105683982E-1	8,889336586E0	2,026720762E0	9,119881635E0
4,187585480E-1	2,153540403E-1	8,879764557E0	2,026720762E0	9,110663697E0
4,199545380E-1	2,153540403E-1	8,877371788E0	2,012363911E0	9,105147760E0
4,211505280E-1	2,177468538E-1	8,865407944E0	1,993221283E0	9,089323560E0
4,223465170E-1	2,129612118E-1	8,865407944E0	1,988435626E0	9,088161900E0
4,235425070E-1	2,105683982E-1	8,879764557E0	1,990828395E0	9,102634527E0
4,247384440E-1	2,081755698E-1	8,882157326E0	1,993221283E0	9,105437217E0
4,259344340E-1	2,057827413E-1	8,872586250E0	1,990828395E0	9,095522580E0
4,271304230E-1	2,129612118E-1	8,879764557E0	1,981257200E0	9,100601692E0
4,283264130E-1	2,129612118E-1	8,891729355E0	1,978864312E0	9,111756547E0
4,295224030E-1	2,057827413E-1	8,898907661E0	1,988435626E0	9,120678722E0
4,307183920E-1	2,009970993E-1	8,901300430E0	1,993221283E0	9,123950913E0
4,319143820E-1	2,057827413E-1	8,903693199E0	2,002792597E0	9,128487131E0
4,331103710E-1	2,201396823E-1	8,896514893E0	2,017149448E0	9,124983869E0
4,343063090E-1	2,249253243E-1	8,886942863E0	2,026720762E0	9,117891308E0
4,355022980E-1	2,273181528E-1	8,879764557E0	2,031506538E0	9,112020135E0
4,366982880E-1	2,416750938E-1	8,882157326E0	2,033899307E0	9,115254906E0
4,378942780E-1	2,512463629E-1	8,879764557E0	2,033899307E0	9,113182195E0
4,390902670E-1	2,584248483E-1	8,877371788E0	2,033899307E0	9,111051512E0
4,402862570E-1	2,727817893E-1	8,877371788E0	2,031506538E0	9,110936208E0
4,414822460E-1	2,727817893E-1	8,872586250E0	2,029113531E0	9,105739860E0
4,426781840E-1	2,679961324E-1	8,865407944E0	2,014756680E0	9,095412273E0
4,438742250E-1	2,727817893E-1	8,860622406E0	2,002792597E0	9,088246119E0
4,450701630E-1	2,847459018E-1	8,860622406E0	2,012363911E0	9,090727042E0
4,462661530E-1	2,943171859E-1	8,863015175E0	2,012363911E0	9,093364015E0
4,474621420E-1	2,943171859E-1	8,874979019E0	2,000399828E0	9,102388405E0
4,486581320E-1	2,799602449E-1	8,884550095E0	1,993221283E0	9,109694792E0
4,498541210E-1	2,679961324E-1	8,891729355E0	1,983649969E0	9,114249286E0
4,510501110E-1	2,632105052E-1	8,898907661E0	1,978864312E0	9,120073536E0
4,522461000E-1	2,703889608E-1	8,908478737E0	1,971685886E0	9,128069283E0
4,534420380E-1	2,823530734E-1	8,918049812E0	1,969292998E0	9,137256187E0
4,546380280E-1	2,799602449E-1	8,934800148E0	1,966900229E0	9,153017422E0
4,558340170E-1	2,967100143E-1	8,939585686E0	1,954936147E0	9,155654231E0
4,570300070E-1	3,086741269E-1	8,946763992E0	1,942971945E0	9,160513393E0
4,582259960E-1	3,062812984E-1	8,963513374E0	1,935793519E0	9,175275298E0
4,594219860E-1	3,038884699E-1	8,970691681E0	1,926222205E0	9,180195500E0
4,606179750E-1	2,991028428E-1	8,975478172E0	1,911865234E0	9,181715505E0
4,618139650E-1	3,158525825E-1	8,982656479E0	1,895115495E0	9,185822936E0
4,630099030E-1	3,397808075E-1	8,987442017E0	1,885544300E0	9,189387483E0
4,642058920E-1	3,493520916E-1	8,989834785E0	1,873580098E0	9,189639750E0
4,654018820E-1	3,565305769E-1	8,994620323E0	1,859223247E0	9,191682103E0
4,665978710E-1	3,589234054E-1	8,999405861E0	1,849651933E0	9,194527945E0
4,677938610E-1	3,565305769E-1	8,994620323E0	1,847259045E0	9,189269546E0
4,689898500E-1	3,589234054E-1	8,982656479E0	1,840080619E0	9,176210553E0
4,701858400E-1	3,589234054E-1	8,987442017E0	1,828116536E0	9,178504785E0
4,713818300E-1	3,589234054E-1	8,994620323E0	1,816152334E0	9,183160135E0
4,725778190E-1	3,637090325E-1	9,004191399E0	1,811366796E0	9,191778755E0
4,737737570E-1	3,708875179E-1	9,023334503E0	1,804188251E0	9,209409229E0
4,749697460E-1	3,780659735E-1	9,037691116E0	1,794616938E0	9,221900268E0
4,761657360E-1	3,828516304E-1	9,047262192E0	1,782652855E0	9,229159211E0
4,773617250E-1	3,948157430E-1	9,064012527E0	1,761117458E0	9,241955273E0
4,785577150E-1	4,091726840E-1	9,078369141E0	1,730010748E0	9,250791627E0
4,797537050E-1	4,211367965E-1	9,092725754E0	1,708475351E0	9,261420294E0
4,809496940E-1	4,378865361E-1	9,092725754E0	1,696511269E0	9,259997664E0
4,821456840E-1	4,570291340E-1	9,090332985E0	1,684547186E0	9,256388531E0
4,833416210E-1	4,713860750E-1	9,099904060E0	1,670190215E0	9,263908144E0
4,845376110E-1	4,881358147E-1	9,109476089E0	1,646261930E0	9,269898033E0
4,857336000E-1	5,072783828E-1	9,121439934E0	1,619940877E0	9,278049702E0
4,869295900E-1	5,120640397E-1	9,135796547E0	1,598405480E0	9,288696798E0
4,881255800E-1	5,048855543E-1	9,140582085E0	1,584048629E0	9,290552208E0
4,893215690E-1	5,072783828E-1	9,133403778E0	1,576870084E0	9,282398138E0
4,905175590E-1	5,192425251E-1	9,133403778E0	1,557727575E0	9,279827184E0
4,917134960E-1	5,264210105E-1	9,142974854E0	1,529013634E0	9,284879695E0
4,929094860E-1	5,335994363E-1	9,150154114E0	1,514656782E0	9,290007203E0
4,941054750E-1	5,407779217E-1	9,145368576E0	1,502692580E0	9,283764977E0
4,953014650E-1	5,431707501E-1	9,145368576E0	1,485942841E0	9,281208272E0
4,964974550E-1	5,479564071E-1	9,152546883E0	1,469193101E0	9,285897858E0
4,976934440E-1	5,575276613E-1	9,150154114E0	1,459621787E0	9,282599483E0
4,988894340E-1	5,790630579E-1	9,142974854E0	1,454836130E0	9,276090306E0
5,000854230E-1	5,862415433E-1	9,135796547E0	1,445264935E0	9,267968948E0
5,012814130E-1	5,958128572E-1	9,119047165E0	1,435693622E0	9,250580000E0
5,024773500E-1	6,053841114E-1	9,097511292E0	1,421336651E0	9,227751595E0
5,036733400E-1	6,077769399E-1	9,097511292E0	1,399801254E0	9,224616418E0
5,048693300E-1	6,077769399E-1	9,097511292E0	1,383051515E0	9,222089568E0
5,060653190E-1	6,053841114E-1	9,090332985E0	1,380658627E0	9,214491952E0
5,072613090E-1	6,029912829E-1	9,087940216E0	1,380658627E0	9,211974495E0
5,084572980E-1	5,958128572E-1	9,092725754E0	1,371087432E0	9,214799799E0
5,096532880E-1	5,886343718E-1	9,090332985E0	1,359123230E0	9,210204132E0
5,108492780E-1	5,934200287E-1	9,090332985E0	1,344766378E0	9,208403647E0
5,120452150E-1	5,934200287E-1	9,095118523E0	1,332802176E0	9,211389141E0
5,132412050E-1	5,742774606E-1	9,090332985E0	1,325623751E0	9,204413436E0
5,144371940E-1	5,599204898E-1	9,080761909E0	1,318445325E0	9,193043342E0
5,156331840E-1	5,623133183E-1	9,075976372E0	1,316052437E0	9,188119361E0
5,168291730E-1	5,599204898E-1	9,068798065E0	1,313659668E0	9,180539800E0
5,180251630E-1	5,407779217E-1	9,056833267E0	1,316052437E0	9,167914900E0
5,192211530E-1	5,192425251E-1	9,054440498E0	1,320838094E0	9,164994207E0
5,204171420E-1	5,048855543E-1	9,052047729E0	1,323230863E0	9,162173183E0
5,216131320E-1	4,977070987E-1	9,040083885E0	1,313659668E0	9,148580804E0
5,228090690E-1	4,929214716E-1	9,037691116E0	1,304088354E0	9,144587401E0
5,240050590E-1	4,833501875E-1	9,030512810E0	1,306481123E0	9,137323565E0
5,252010480E-1	4,713860750E-1	9,004191399E0	1,308874011E0	9,111027316E0
5,263970380E-1	4,522434771E-1	8,980263710E0	1,301695466E0	9,085376797E0
5,275930280E-1	4,331009090E-1	8,982656479E0	1,289731383E0	9,085103239E0
5,287890170E-1	4,259224236E-1	8,980263710E0	1,277767301E0	9,080706772E0
5,299850070E-1	4,163511395E-1	8,973084450E0	1,270588875E0	9,072154590E0
5,311809440E-1	3,948157430E-1	8,977870941E0	1,261017561E0	9,074591528E0
5,323769340E-1	3,684946895E-1	8,980263710E0	1,261017561E0	9,075852022E0
5,335729230E-1	3,541377485E-1	8,980263710E0	1,265803218E0	9,075946652E0
5,347689130E-1	3,565305769E-1	8,987442017E0	1,282552958E0	9,085492290E0
5,359649030E-1	3,493520916E-1	9,008976936E0	1,308874011E0	9,110261440E0
5,371608920E-1	3,326023519E-1	9,018548965E0	1,328016520E0	9,121868101E0
5,383568820E-1	3,326023519E-1	9,016156197E0	1,344766378E0	9,121956670E0
5,395528190E-1	3,302095234E-1	9,018548965E0	1,361516118E0	9,126718463E0
5,407488610E-1	3,230310678E-1	9,020941734E0	1,375872970E0	9,130978331E0
5,419447980E-1	3,230310678E-1	9,018548965E0	1,390229940E0	9,130789331E0
5,431407880E-1	3,397808075E-1	9,016156197E0	1,409372568E0	9,131968824E0
5,443367780E-1	3,493520916E-1	9,011369705E0	1,426122308E0	9,130205676E0
5,455327670E-1	3,421736360E-1	9,011369705E0	1,442872047E0	9,132565166E0
5,467287570E-1	3,469592929E-1	9,023334503E0	1,457229018E0	9,146828014E0
5,479247460E-1	3,517449200E-1	9,023334503E0	1,452443361E0	9,146249601E0
5,491207360E-1	3,637090325E-1	9,006584167E0	1,435693622E0	9,127543963E0
5,503166730E-1	3,708875179E-1	9,013762474E0	1,442872047E0	9,136046806E0
5,515126630E-1	3,708875179E-1	9,013762474E0	1,442872047E0	9,136046806E0
5,527086530E-1	3,756731451E-1	8,987442017E0	1,423729420E0	9,107263572E0
5,539046420E-1	3,756731451E-1	8,975478172E0	1,421336651E0	9,095083101E0
5,551006320E-1	3,828516304E-1	8,980263710E0	1,423729420E0	9,100478951E0
5,562966210E-1	3,924229145E-1	8,994620323E0	1,423729420E0	9,115053262E0
5,574926110E-1	4,043870270E-1	9,011369705E0	1,423729420E0	9,132103717E0
5,586886000E-1	4,115654826E-1	9,028120041E0	1,421336651E0	9,148581065E0
5,598845900E-1	4,019941986E-1	9,049654961E0	1,418943882E0	9,169037898E0
5,610805280E-1	3,948157430E-1	9,064012527E0	1,421336651E0	9,183267417E0
5,622765170E-1	3,852444589E-1	9,087940216E0	1,428515077E0	9,207590672E0
5,634725070E-1	3,828516304E-1	9,104690552E0	1,433300734E0	9,224766469E0
5,646684960E-1	3,948157430E-1	9,111868858E0	1,452443361E0	9,235346517E0
5,658644860E-1	4,091726840E-1	9,119047165E0	1,476371527E0	9,246843589E0
5,670604750E-1	4,211367965E-1	9,131011009E0	1,488335729E0	9,261093968E0
5,682564650E-1	4,283152521E-1	9,140582085E0	1,495514154E0	9,272014743E0
5,694524030E-1	4,307080805E-1	9,135796547E0	1,495514154E0	9,267407975E0
5,706483920E-1	4,331009090E-1	9,128618240E0	1,495514154E0	9,260443292E0
5,718443820E-1	4,331009090E-1	9,126225471E0	1,495514154E0	9,258084593E0
5,730403710E-1	4,283152521E-1	9,111868858E0	1,488335729E0	9,242551124E0
5,742363610E-1	4,259224236E-1	9,092725754E0	1,476371527E0	9,221645430E0
5,754323500E-1	4,139583111E-1	9,085547447E0	1,462014675E0	9,211732780E0
5,766283400E-1	4,139583111E-1	9,071190834E0	1,447657704E0	9,195301923E0
5,778243300E-1	4,211367965E-1	9,061619759E0	1,426122308E0	9,182817307E0
5,790203190E-1	4,139583111E-1	9,066405296E0	1,411765337E0	9,184995800E0
5,802162570E-1	3,996013701E-1	9,061619759E0	1,402194023E0	9,178168771E0
5,814122460E-1	3,924229145E-1	9,049654961E0	1,383051515E0	9,163137134E0
5,826082360E-1	3,900300860E-1	9,042476654E0	1,359123230E0	9,152361633E0
5,838042250E-1	3,756731451E-1	9,044869423E0	1,344766378E0	9,152004688E0
5,850002150E-1	3,565305769E-1	9,056833267E0	1,335195065E0	9,161664082E0
5,861962050E-1	3,349951804E-1	9,066405296E0	1,328016520E0	9,169272307E0
5,873921940E-1	3,110669553E-1	9,064012527E0	1,323230863E0	9,165371005E0
5,885881320E-1	2,727817893E-1	9,071190834E0	1,325623751E0	9,171596992E0
5,897841210E-1	2,368894368E-1	9,085547447E0	1,332802176E0	9,185839682E0
5,909801110E-1	2,105683982E-1	9,099904060E0	1,328016520E0	9,198707563E0
5,921761000E-1	1,818545163E-1	9,102297783E0	1,320838094E0	9,199429834E0
5,933720900E-1	1,507478207E-1	9,097511292E0	1,320838094E0	9,194131274E0
5,945680800E-1	1,244267747E-1	9,111868858E0	1,325623751E0	9,208632604E0
5,957640690E-1	1,100698411E-1	9,119047165E0	1,332802176E0	9,216588209E0
5,969600590E-1	1,100698411E-1	9,111868858E0	1,339980721E0	9,210527553E0
5,981560480E-1	1,052841991E-1	9,107083321E0	1,344766378E0	9,206435140E0
5,993519860E-1	9,810572863E-2	9,092725754E0	1,349551916E0	9,192854657E0
6,005479750E-1	8,853443712E-2	9,080761909E0	1,349551916E0	9,180924005E0
6,017439650E-1	7,417750359E-2	9,078369141E0	1,349551916E0	9,178430091E0
6,029399550E-1	6,460621208E-2	9,073583603E0	1,347159147E0	9,173272651E0
6,041359440E-1	5,503492057E-2	9,068798065E0	1,347159147E0	9,168476698E0
6,053319340E-1	4,067798331E-2	9,068798065E0	1,351944804E0	9,169106161E0
6,065279230E-1	2,632104978E-2	9,071190834E0	1,363908887E0	9,173191560E0
6,077239130E-1	4,785645287E-3	9,064012527E0	1,368694544E0	9,166769919E0
6,089198500E-1	-1,435693540E-2	9,059226990E0	1,361516118E0	9,160978436E0
6,101158400E-1	-1,435693540E-2	9,071190834E0	1,361516118E0	9,172809570E0
6,113118300E-1	-1,914258115E-2	9,095118523E0	1,371087432E0	9,197903464E0
6,125078190E-1	-3,589234129E-2	9,114261627E0	1,380658627E0	9,218311750E0
6,137038090E-1	-5,503492057E-2	9,123832703E0	1,390229940E0	9,229306112E0
6,148997980E-1	-7,896314561E-2	9,138189316E0	1,404586911E0	9,245842500E0
6,160957880E-1	-1,148554832E-1	9,154939651E0	1,421336651E0	9,265328363E0
6,172917780E-1	-1,268195957E-1	9,162117958E0	1,433300734E0	9,274418563E0
6,184877670E-1	-1,196411327E-1	9,164510727E0	1,435693622E0	9,277057025E0
6,196837050E-1	-1,124626622E-1	9,176474571E0	1,428515077E0	9,287679405E0
6,208796940E-1	-1,052841991E-1	9,176474571E0	1,428515077E0	9,287595256E0
6,220756840E-1	-1,172483116E-1	9,166903496E0	1,428515077E0	9,278282287E0
6,232716730E-1	-1,387837082E-1	9,162117958E0	1,428515077E0	9,273851504E0
6,244676630E-1	-1,459621787E-1	9,176474571E0	1,430907965E0	9,288513773E0
6,256636530E-1	-1,339980662E-1	9,183652878E0	1,430907965E0	9,295425395E0
6,268596420E-1	-1,268195957E-1	9,183652878E0	1,428515077E0	9,294956628E0
6,280555800E-1	-1,316052526E-1	9,202795982E0	1,430907965E0	9,314304667E0
6,292515690E-1	-1,411765367E-1	9,209974289E0	1,450050473E0	9,324494817E0
6,304475590E-1	-1,387837082E-1	9,217152596E0	1,476371527E0	9,335675432E0
6,316435480E-1	-1,172483116E-1	9,231510162E0	1,495514154E0	9,352598015E0
6,328395380E-1	-9,810572863E-2	9,233902931E0	1,502692580E0	9,355889753E0
6,340355280E-1	-6,699903309E-2	9,241081238E0	1,514656782E0	9,364627941E0
6,352315170E-1	-3,110669367E-2	9,253045082E0	1,526620865E0	9,378186508E0
6,364275070E-1	2,392822644E-3	9,265008926E0	1,533799291E0	9,391109434E0
6,376234440E-1	1,674975827E-2	9,288937569E0	1,548156261E0	9,417081794E0
6,388194340E-1	3,349951655E-2	9,298508644E0	1,560120344E0	9,428539691E0
6,400154230E-1	4,546362907E-2	9,286544800E0	1,560120344E0	9,416791213E0
6,412114130E-1	6,221338734E-2	9,291330338E0	1,564906001E0	9,422399946E0
6,424074030E-1	7,657032460E-2	9,303294182E0	1,579262972E0	9,436695247E0
6,436033920E-1	7,896314561E-2	9,320044518E0	1,588834286E0	9,454832594E0
6,447993820E-1	8,614161611E-2	9,341579437E0	1,588834286E0	9,476123741E0
6,459953710E-1	8,853443712E-2	9,358329773E0	1,588834286E0	9,492658683E0
6,471913610E-1	9,571290761E-2	9,387042999E0	1,581655741E0	9,519840971E0
6,483872980E-1	1,052841991E-1	9,408578873E0	1,584048629E0	9,541574882E0
6,495832880E-1	9,810572863E-2	9,418149948E0	1,588834286E0	9,551731129E0
6,507792780E-1	9,332008660E-2	9,434899330E0	1,584048629E0	9,567405294E0
6,519752670E-1	8,853443712E-2	9,458827972E0	1,584048629E0	9,590957982E0
6,531712570E-1	8,853443712E-2	9,485149384E0	1,588834286E0	9,617707188E0
6,543672460E-1	9,810572863E-2	9,504291534E0	1,584048629E0	9,635890844E0
6,555632360E-1	1,148554832E-1	9,511469841E0	1,572084427E0	9,641198046E0
6,567591730E-1	1,316052526E-1	9,530612946E0	1,557727575E0	9,657971747E0
6,579551630E-1	1,363908947E-1	9,556933403E0	1,548156261E0	9,682477284E0
6,591511530E-1	1,363908947E-1	9,568898201E0	1,545763373E0	9,693905284E0
6,603471420E-1	1,435693651E-1	9,571290970E0	1,531406522E0	9,694092476E0
6,615431320E-1	1,555334777E-1	9,580862045E0	1,512263894E0	9,700724214E0
6,627391210E-1	1,674975902E-1	9,597611427E0	1,490728498E0	9,714137739E0
6,639351110E-1	1,818545163E-1	9,621540070E0	1,476371527E0	9,735850105E0
6,651311000E-1	2,009970993E-1	9,652647018E0	1,469193101E0	9,765885657E0
6,663270380E-1	2,153540403E-1	9,671789169E0	1,457229018E0	9,783322519E0
6,675230280E-1	2,201396823E-1	9,678967476E0	1,442872047E0	9,788398880E0
6,687190170E-1	2,129612118E-1	9,686145782E0	1,426122308E0	9,792885041E0
6,699150070E-1	2,177468538E-1	9,700503349E0	1,402194023E0	9,803740460E0
6,711109960E-1	2,297109663E-1	9,729216576E0	1,387837172E0	9,830387292E0
6,723069860E-1	2,297109663E-1	9,753145218E0	1,383051515E0	9,853397397E0
6,735029750E-1	2,273181528E-1	9,774680138E0	1,378265858E0	9,873989169E0
6,746989130E-1	2,201396823E-1	9,793823242E0	1,373480201E0	9,892112163E0
6,758949550E-1	2,081755698E-1	9,815358162E0	1,359123230E0	9,911196137E0
6,770908920E-1	1,986042857E-1	9,839286804E0	1,347159147E0	9,933068320E0
6,782868820E-1	2,129612118E-1	9,858428955E0	1,351944804E0	9,952975871E0
6,794828710E-1	2,273181528E-1	9,875179291E0	1,359123230E0	9,970860320E0
6,806788610E-1	2,344966233E-1	9,884750366E0	1,363908887E0	9,981158546E0
6,818748500E-1	2,536391914E-1	9,887143135E0	1,359123230E0	9,983343536E0
6,830708400E-1	2,727817893E-1	9,896714211E0	1,351944804E0	9,992352917E0
6,842668300E-1	2,823530734E-1	9,913464546E0	1,339980721E0	1,000759966E1
6,854628190E-1	3,014956415E-1	9,923035622E0	1,328016520E0	1,001604530E1
6,866587570E-1	3,230310678E-1	9,934999466E0	1,316052437E0	1,002699145E1
6,878547460E-1	3,493520916E-1	9,949356079E0	1,304088354E0	1,004053682E1
6,890507360E-1	3,732803464E-1	9,961320877E0	1,284945726E0	1,005078790E1
6,902467250E-1	3,852444589E-1	9,973284721E0	1,256231904E0	1,005947017E1
6,914427150E-1	3,900300860E-1	9,980463028E0	1,229910851E0	1,006352058E1
6,926387050E-1	3,996013701E-1	9,987641335E0	1,210768223E0	1,006869507E1
6,938346940E-1	4,067798555E-1	9,992427826E0	1,196411371E0	1,007201489E1
6,950306320E-1	3,996013701E-1	9,992427826E0	1,177268744E0	1,006947153E1
6,962266210E-1	3,828516304E-1	9,999606133E0	1,162911773E0	1,007427724E1
6,974226110E-1	3,684946895E-1	1,001635551E1	1,153340459E0	1,008926956E1
6,986186000E-1	3,589234054E-1	1,002831936E1	1,150947690E0	1,010052948E1
6,998145900E-1	3,349951804E-1	1,004267693E1	1,143769264E0	1,011314935E1
7,010105800E-1	3,158525825E-1	1,005703354E1	1,131805062E0	1,012544662E1
7,022065690E-1	3,086741269E-1	1,007378292E1	1,131805062E0	1,014186200E1
7,034025590E-1	3,014956415E-1	1,008814049E1	1,138983607E0	1,015671018E1
7,045985480E-1	2,919243574E-1	1,009053326E1	1,148554921E0	1,015988482E1
7,057944860E-1	2,775674164E-1	1,009771156E1	1,158126116E0	1,016769780E1
7,069904750E-1	2,656033039E-1	1,010488987E1	1,153340459E0	1,017396376E1
7,081864650E-1	2,536391914E-1	1,010010433E1	1,148554921E0	1,016836362E1
7,093824550E-1	2,584248483E-1	1,009771156E1	1,150947690E0	1,016637806E1
7,105784440E-1	2,536391914E-1	1,010488987E1	1,155733347E0	1,017393000E1
7,117744340E-1	2,392822653E-1	1,010967541E1	1,148554921E0	1,017752284E1
7,129704230E-1	2,344966233E-1	1,011206818E1	1,134197950E0	1,017817845E1
7,141663610E-1	2,249253243E-1	1,011924744E1	1,127019525E0	1,018429836E1
7,153623500E-1	2,249253243E-1	1,013121128E1	1,119840980E0	1,019539490E1
7,165583400E-1	2,321037948E-1	1,014796066E1	1,119840980E0	1,021219965E1
7,177543300E-1	2,392822653E-1	1,016949654E1	1,136590719E0	1,023561206E1
7,189503190E-1	2,321037948E-1	1,018863869E1	1,155733347E0	1,025660519E1
7,201463090E-1	2,225325108E-1	1,018863869E1	1,158126116E0	1,025666296E1
7,213422980E-1	2,249253243E-1	1,020060253E1	1,167697430E0	1,026968357E1
7,225382880E-1	2,249253243E-1	1,022931671E1	1,194018483E0	1,030122284E1
7,237342780E-1	2,273181528E-1	1,025324535E1	1,225125194E0	1,032868073E1
7,249302150E-1	2,321037948E-1	1,026999474E1	1,253839016E0	1,034885387E1
7,261262050E-1	2,249253243E-1	1,027478027E1	1,277767301E0	1,035636955E1
7,273221940E-1	2,225325108E-1	1,027478027E1	1,301695466E0	1,035929734E1
7,285181840E-1	2,392822653E-1	1,027956581E1	1,323230863E0	1,036714373E1
7,297141730E-1	2,560320199E-1	1,027956581E1	1,337587833E0	1,036938604E1
7,309101630E-1	2,608176768E-1	1,028674412E1	1,347159147E0	1,037785952E1
7,321061530E-1	2,656033039E-1	1,030110168E1	1,351944804E0	1,039283387E1
7,333021420E-1	2,751746178E-1	1,030827999E1	1,371087432E0	1,040270341E1
7,344980800E-1	2,775674164E-1	1,031545830E1	1,399801254E0	1,041370093E1
7,356940690E-1	2,823530734E-1	1,032981491E1	1,421336651E0	1,043096339E1
7,368900590E-1	2,823530734E-1	1,033938694E1	1,433300734E0	1,044207817E1
7,380860480E-1	2,775674164E-1	1,033220863E1	1,459621787E0	1,043849006E1
7,392820380E-1	2,871387303E-1	1,033220863E1	1,495514154E0	1,044382815E1
7,404780280E-1	3,014956415E-1	1,035852909E1	1,531406522E0	1,047545849E1
7,416740170E-1	3,062812984E-1	1,038006496E1	1,560120344E0	1,050112053E1
7,428700070E-1	3,062812984E-1	1,038724327E1	1,591227055E0	1,051287946E1
7,440659440E-1	3,110669553E-1	1,040399265E1	1,627119422E0	1,053505308E1
7,452619340E-1	3,206382394E-1	1,042074299E1	1,653440475E0	1,055597266E1
7,464579230E-1	3,349951804E-1	1,043509960E1	1,672582984E0	1,057360200E1
7,476539130E-1	3,613162339E-1	1,045902824E1	1,694118381E0	1,060150264E1
7,488499030E-1	3,732803464E-1	1,048534870E1	1,720439434E0	1,063211115E1
7,500458920E-1	3,828516304E-1	1,049970531E1	1,741974831E0	1,065011096E1
7,512418820E-1	4,019941986E-1	1,051884842E1	1,756331801E0	1,067204164E1
7,524378710E-1	4,091726840E-1	1,053320503E1	1,765903115E0	1,068804212E1
7,536338090E-1	4,187439680E-1	1,053559780E1	1,770688772E0	1,069156239E1
7,548297980E-1	4,307080805E-1	1,054277611E1	1,775474429E0	1,069990406E1
7,560257880E-1	4,402793646E-1	1,055474091E1	1,782652855E0	1,071327460E1
7,572217780E-1	4,450650215E-1	1,056431198E1	1,789831281E0	1,072409747E1
7,584177670E-1	4,642075896E-1	1,057388306E1	1,808973908E0	1,073754526E1
7,596137570E-1	4,905286431E-1	1,058345413E1	1,837687731E0	1,075300962E1
7,608097460E-1	4,929214716E-1	1,059541893E1	1,868794441E0	1,077024914E1
7,620057360E-1	4,953143001E-1	1,060738277E1	1,887937069E0	1,078546299E1
7,632016730E-1	5,048855543E-1	1,060977554E1	1,907079697E0	1,079162636E1
7,643976630E-1	5,048855543E-1	1,061456108E1	1,931007862E0	1,080058368E1
7,655936530E-1	5,024927258E-1	1,063370419E1	1,945364833E0	1,082185788E1
7,667896420E-1	4,905286431E-1	1,066720295E1	1,959721804E0	1,085681107E1
7,679856320E-1	4,666004181E-1	1,070788097E1	1,969292998E0	1,089745593E1
7,691816210E-1	4,307080805E-1	1,074616623E1	1,962114573E0	1,093231410E1
7,703776110E-1	3,828516304E-1	1,078205872E1	1,942971945E0	1,096241331E1
7,715736000E-1	3,349951804E-1	1,082273674E1	1,928615093E0	1,099833662E1
7,727695900E-1	2,823530734E-1	1,086820030E1	1,914258122E0	1,103910708E1
7,739655280E-1	2,297109663E-1	1,092562866E1	1,887937069E0	1,108992494E1
7,751615170E-1	1,818545163E-1	1,097348499E1	1,856830359E0	1,113095966E1
7,763575070E-1	1,555334777E-1	1,101416302E1	1,832902193E0	1,116671429E1
7,775534960E-1	1,435693651E-1	1,105484104E1	1,811366796E0	1,120317688E1
7,787494860E-1	1,316052526E-1	1,108594704E1	1,785045743E0	1,122951156E1
7,799454750E-1	1,172483116E-1	1,109312534E1	1,749153376E0	1,123079314E1
7,811414650E-1	1,004985496E-1	1,109073257E1	1,696511269E0	1,122018714E1
7,823374550E-1	9,571290761E-2	1,110509014E1	1,634297848E0	1,122511102E1
7,835333920E-1	9,092725813E-2	1,111944675E1	1,574477315E0	1,123073206E1
7,847293820E-1	7,178468257E-2	1,113141060E1	1,497906923E0	1,123197134E1
7,859253710E-1	4,785645381E-2	1,114576817E1	1,411765337E0	1,123492410E1
7,871213610E-1	1,914258115E-2	1,116012478E1	1,332802176E0	1,123944452E1
7,883173500E-1	7,178467698E-3	1,116969585E1	1,261017561E0	1,124065489E1
7,895133400E-1	-9,571290575E-3	1,117926693E1	1,186840057E0	1,124209456E1
7,907093300E-1	-3,110669367E-2	1,119841003E1	1,115055323E0	1,125383061E1
7,919052670E-1	-4,546362907E-2	1,121994495E1	1,043270707E0	1,126843580E1
7,931012570E-1	-6,460621208E-2	1,123190975E1	9,714859724E-1	1,127403014E1
7,942972460E-1	-9,332008660E-2	1,123908806E1	9,236295223E-1	1,127736230E1
7,954932360E-1	-1,028913707E-1	1,124387360E1	8,805587292E-1	1,127877049E1
7,966892250E-1	-9,810572863E-2	1,125344467E1	8,303094506E-1	1,128446080E1
7,978852150E-1	-1,052841991E-1	1,126540947E1	7,776673436E-1	1,129271012E1
7,990812050E-1	-1,028913707E-1	1,127737331E1	7,298108935E-1	1,130143174E1
8,002771940E-1	-8,853443712E-2	1,128455162E1	6,915257573E-1	1,130606702E1
8,014731840E-1	-8,614161611E-2	1,128694439E1	6,604190469E-1	1,130657717E1
8,026691210E-1	-8,374879509E-2	1,129412270E1	6,221339107E-1	1,131155480E1
8,038651110E-1	-8,374879509E-2	1,130369377E1	5,934200287E-1	1,131956952E1
8,050611000E-1	-8,135596663E-2	1,130130100E1	5,910272002E-1	1,131703743E1
8,062570900E-1	-5,982056633E-2	1,129172993E1	5,886343718E-1	1,130722042E1
8,074530800E-1	-3,110669367E-2	1,129412270E1	5,838487148E-1	1,130924641E1
8,086490690E-1	-2,392822644E-3	1,130608654E1	5,766702294E-1	1,132078386E1
8,098450590E-1	2,632104978E-2	1,131087303E1	5,790630579E-1	1,132571656E1
8,110410480E-1	4,546362907E-2	1,130369377E1	5,814558864E-1	1,131873009E1
8,122369860E-1	7,657032460E-2	1,129651546E1	5,814558864E-1	1,131172912E1
8,134329750E-1	1,052841991E-1	1,129651546E1	5,934200287E-1	1,131258121E1
8,146289650E-1	1,220339537E-1	1,131326580E1	6,125625968E-1	1,133049462E1
8,158249550E-1	1,459621787E-1	1,133240795E1	6,340979934E-1	1,135107287E1
8,170209440E-1	1,674975902E-1	1,133480072E1	6,580262184E-1	1,135512049E1
8,182169340E-1	1,746760458E-1	1,134437180E1	6,843472719E-1	1,136633689E1
8,194129230E-1	1,818545163E-1	1,137069321E1	7,154539824E-1	1,139463073E1
8,206089130E-1	1,914258152E-1	1,139462185E1	7,489534616E-1	1,142081355E1
8,218048500E-1	1,962114573E-1	1,141137123E1	7,848458290E-1	1,144001203E1
8,230008400E-1	1,986042857E-1	1,142812061E1	8,159525394E-1	1,145893376E1
8,241968300E-1	2,009970993E-1	1,144965649E1	8,446664214E-1	1,148252999E1
8,253928190E-1	2,201396823E-1	1,146401310E1	8,829515576E-1	1,150007223E1
8,265888090E-1	2,464607358E-1	1,148076344E1	9,116654396E-1	1,151954017E1
8,277847980E-1	2,656033039E-1	1,149990559E1	9,475577474E-1	1,154193395E1
8,289807880E-1	2,751746178E-1	1,150469112E1	9,882357717E-1	1,155033544E1
8,301767250E-1	2,991028428E-1	1,149990559E1	1,036092162E0	1,155035835E1
8,313727150E-1	3,373879790E-1	1,150229836E1	1,086341500E0	1,155840975E1
8,325687050E-1	3,469592929E-1	1,151665497E1	1,124626637E0	1,157663628E1
8,337646940E-1	3,589234054E-1	1,152861977E1	1,153340459E0	1,159172524E1
8,349606840E-1	3,900300860E-1	1,153579807E1	1,177268744E0	1,160227229E1
8,361566730E-1	4,163511395E-1	1,154058361E1	1,213161111E0	1,161163977E1
8,373526630E-1	4,402793646E-1	1,155254745E1	1,239482164E0	1,162718860E1
8,385486530E-1	4,689932466E-1	1,155972576E1	1,268195987E0	1,163853665E1
8,397446420E-1	4,929214716E-1	1,156690502E1	1,304088354E0	1,165061843E1
8,409405800E-1	5,192425251E-1	1,157647610E1	1,347159147E0	1,166615830E1
8,421365690E-1	5,503492355E-1	1,158126163E1	1,404586911E0	1,167909970E1
8,433325590E-1	5,742774606E-1	1,157886887E1	1,462014675E0	1,168492558E1
8,445285480E-1	6,053841114E-1	1,157169056E1	1,517049551E0	1,168640029E1
8,457245380E-1	6,388836503E-1	1,155972576E1	1,591227055E0	1,168620706E1
8,469205280E-1	6,723831892E-1	1,154536915E1	1,674975872E0	1,168559764E1
8,481165170E-1	7,106683254E-1	1,154058361E1	1,756331801E0	1,169507678E1
8,493125070E-1	7,489534616E-1	1,153819084E1	1,837687731E0	1,170759904E1
8,505084440E-1	7,920243144E-1	1,153101254E1	1,919043779E0	1,171641078E1
8,517044340E-1	8,374879360E-1	1,151904774E1	1,998006940E0	1,172100160E1
8,529004230E-1	8,662018180E-1	1,150708389E1	2,065006018E0	1,172294908E1
8,540964130E-1	8,949156404E-1	1,149990559E1	2,132004976E0	1,173005318E1
8,552924030E-1	9,284151793E-1	1,148554897E1	2,201396942E0	1,173140820E1
8,564883920E-1	9,547362328E-1	1,146401310E1	2,266003132E0	1,172475534E1
8,576843820E-1	9,882357717E-1	1,144965649E1	2,318645239E0	1,172379458E1
8,588803710E-1	1,019342422E0	1,142812061E1	2,364108801E0	1,171452134E1
8,600763090E-1	1,038485050E0	1,139940739E1	2,416750908E0	1,169895828E1
8,612722980E-1	1,062413216E0	1,138265705E1	2,476571321E0	1,169730776E1
8,624682880E-1	1,088734269E0	1,136590767E1	2,529213428E0	1,169470479E1
8,636642780E-1	1,122233868E0	1,133958626E1	2,572284460E0	1,168170675E1
8,648602670E-1	1,148554921E0	1,132522964E1	2,612962246E0	1,167936542E1
8,660562570E-1	1,158126116E0	1,131087303E1	2,651247501E0	1,167502540E1
8,672522460E-1	1,160519004E0	1,128694439E1	2,679961443E0	1,165864964E1
8,684482360E-1	1,165304661E0	1,125823021E1	2,715853691E0	1,163965393E1
8,696441730E-1	1,177268744E0	1,124626637E1	2,758924484E0	1,163942151E1
8,708401630E-1	1,179661512E0	1,122951698E1	2,799602509E0	1,163320365E1
8,720361530E-1	1,172483087E0	1,121276665E1	2,830709219E0	1,162384477E1
8,732321420E-1	1,170090318E0	1,119362450E1	2,857030153E0	1,161158740E1
8,744281320E-1	1,158126116E0	1,117208862E1	2,885744095E0	1,159673830E1
8,756241210E-1	1,143769264E0	1,116012478E1	2,900100946E0	1,158737152E1
8,768201110E-1	1,131805062E0	1,113858986E1	2,907279491E0	1,156725727E1
8,780161000E-1	1,107876897E0	1,111466122E1	2,912065268E0	1,154310224E1
8,792120380E-1	1,083948612E0	1,109073257E1	2,907279491E0	1,151657795E1
8,804080280E-1	1,057627559E0	1,106441212E1	2,888136864E0	1,148395080E1
8,816040170E-1	1,021735311E0	1,104526901E1	2,849851847E0	1,145266633E1
8,828000070E-1	9,906286001E-1	1,103569794E1	2,804388046E0	1,142946046E1
8,839959960E-1	9,571290612E-1	1,102373409E1	2,763710260E0	1,140512621E1
8,851919860E-1	9,116654396E-1	1,099980545E1	2,711068153E0	1,136559476E1
8,863879750E-1	8,662018180E-1	1,097587776E1	2,651247501E0	1,132472126E1
8,875839650E-1	8,207381964E-1	1,095912743E1	2,586641312E0	1,129011950E1
8,887799030E-1	7,824530005E-1	1,095673466E1	2,526820660E0	1,127151674E1
8,899758920E-1	7,465606928E-1	1,095194912E1	2,469393015E0	1,125168628E1
8,911718820E-1	7,058826685E-1	1,094477081E1	2,411965132E0	1,122959725E1
8,923678710E-1	6,747759581E-1	1,094237804E1	2,359323025E0	1,121415913E1
8,935638610E-1	6,484549642E-1	1,092562866E1	2,306680918E0	1,118528642E1
8,947598500E-1	6,173482537E-1	1,089930725E1	2,249253273E0	1,114608262E1
8,959558400E-1	5,862415433E-1	1,088495064E1	2,184647083E0	1,111748678E1
8,971518300E-1	5,623133183E-1	1,086820030E1	2,117648125E0	1,108685743E1
8,983477670E-1	5,335994363E-1	1,084427261E1	2,055434704E0	1,105023930E1
8,995437570E-1	5,024927258E-1	1,082273674E1	1,983649969E0	1,101449031E1
9,007397460E-1	4,857429862E-1	1,079162979E1	1,909472466E0	1,097001845E1
9,019357360E-1	4,785645306E-1	1,077727318E1	1,844866276E0	1,094450423E1
9,031317250E-1	4,642075896E-1	1,078205872E1	1,787438512E0	1,093906830E1
9,043277150E-1	4,594219327E-1	1,077488041E1	1,737189293E0	1,092368724E1
9,055237050E-1	4,522434771E-1	1,075095177E1	1,686939955E0	1,089188939E1
9,067196940E-1	4,426721931E-1	1,071984577E1	1,631905079E0	1,085238067E1
9,079156320E-1	4,259224236E-1	1,068395329E1	1,591227055E0	1,081019293E1
9,091116210E-1	3,996013701E-1	1,066002464E1	1,572084427E0	1,078272953E1
9,103076110E-1	3,900300860E-1	1,065284634E1	1,560120344E0	1,077354324E1
9,115036000E-1	4,019941986E-1	1,063848972E1	1,555334687E0	1,075909517E1
9,126995900E-1	3,948157430E-1	1,061695385E1	1,557727575E0	1,073788171E1
9,138955800E-1	3,828516304E-1	1,059781170E1	1,562513232E0	1,071921806E1
9,150915690E-1	3,852444589E-1	1,057627583E1	1,560120344E0	1,069766326E1
9,162875070E-1	3,804588020E-1	1,055713367E1	1,555334687E0	1,067786900E1
9,174834960E-1	3,804588020E-1	1,054038334E1	1,564906001E0	1,066270888E1
9,186794860E-1	3,804588020E-1	1,050449181E1	1,572084427E0	1,062828991E1
9,198754750E-1	3,637090325E-1	1,046620655E1	1,576870084E0	1,059057520E1
9,210714650E-1	3,541377485E-1	1,043509960E1	1,584048629E0	1,056058366E1
9,222674550E-1	3,421736360E-1	1,039681435E1	1,586441398E0	1,052271959E1
9,234634440E-1	3,086741269E-1	1,036570740E1	1,591227055E0	1,049167161E1
9,246594340E-1	2,751746178E-1	1,034656525E1	1,593619823E0	1,047218972E1
9,258554230E-1	2,512463629E-1	1,032502937E1	1,584048629E0	1,044885479E1
9,270513610E-1	2,321037948E-1	1,029392338E1	1,569691658E0	1,041550107E1
9,282473500E-1	1,986042857E-1	1,026042366E1	1,569691658E0	1,038169877E1
9,294433400E-1	1,651047617E-1	1,023410225E1	1,579262972E0	1,035655251E1
9,306393300E-1	1,459621787E-1	1,021735287E1	1,588834286E0	1,034117977E1
9,318353190E-1	1,244267747E-1	1,019820976E1	1,600798368E0	1,032383261E1
9,330313090E-1	8,614161611E-2	1,017428207E1	1,624726534E0	1,030355145E1
9,342272980E-1	5,982056633E-2	1,014317513E1	1,663011789E0	1,027877368E1
9,354232880E-1	5,264209956E-2	1,011924744E1	1,696511269E0	1,026060867E1
9,366192250E-1	3,589234129E-2	1,010728264E1	1,727617979E0	1,025393166E1
9,378152150E-1	1,914258115E-2	1,008574772E1	1,768295884E0	1,023960662E1
9,390112050E-1	1,196411345E-2	1,005703354E1	1,811366796E0	1,021886082E1
9,402071940E-1	2,392822644E-3	1,002592659E1	1,840080619E0	1,019338542E1
9,414031840E-1	-1,435693540E-2	9,985248566E0	1,875972986E0	1,015995422E1
9,425991730E-1	-3,349951655E-2	9,944570541E0	1,921436548E0	1,012854994E1
9,437951630E-1	-3,349951655E-2	9,908679008E0	1,962114573E0	1,010113536E1
9,449911530E-1	-2,153540403E-2	9,870393753E0	2,002792597E0	1,007155970E1
9,461870900E-1	-9,571290575E-3	9,832108498E0	2,036292076E0	1,004076364E1
9,473830800E-1	-2,392822644E-3	9,796216011E0	2,057827473E0	1,001002037E1
9,485790690E-1	0,000000000E0	9,765109062E0	2,074577332E0	9,983046935E0
9,497750590E-1	2,392822644E-3	9,722038269E0	2,100898266E0	9,946446971E0
9,509710480E-1	1,435693540E-2	9,681360245E0	2,124826431E0	9,911802544E0
9,521670380E-1	2,392822690E-2	9,647860527E0	2,141576290E0	9,882718974E0
9,533630280E-1	1,674975827E-2	9,607182503E0	2,160718918E0	9,847179415E0
9,545590170E-1	0,000000000E0	9,571290970E0	2,170290232E0	9,814263626E0
9,557549550E-1	0,000000000E0	9,544969559E0	2,177468538E0	9,790189636E0
9,569509440E-1	7,178467698E-3	9,521040916E0	2,199003935E0	9,771688184E0
9,581469340E-1	0,000000000E0	9,497113228E0	2,225325108E0	9,754344237E0
9,593429230E-1	-1,435693540E-2	9,470791817E0	2,251646042E0	9,734783698E0
9,605389130E-1	-2,392822690E-2	9,446864128E0	2,277967215E0	9,717661707E0
9,617349030E-1	-2,392822690E-2	9,413364410E0	2,301895380E0	9,690754585E0
9,629308920E-1	-2,871387079E-2	9,389435768E0	2,316252232E0	9,670954086E0
9,641268820E-1	-4,067798331E-2	9,358329773E0	2,330609322E0	9,644258948E0
9,653228190E-1	-4,307080805E-2	9,324830055E0	2,344966173E0	9,615257511E0
9,665188090E-1	-3,828516230E-2	9,291330338E0	2,354537487E0	9,585099476E0
9,677147980E-1	-4,546362907E-2	9,257830620E0	2,359323025E0	9,553842152E0
9,689107880E-1	-4,546362907E-2	9,229117393E0	2,366501570E0	9,527801661E0
9,701067780E-1	-4,785645381E-2	9,198010445E0	2,385644197E0	9,502472553E0
9,713027670E-1	-4,785645381E-2	9,169296265E0	2,395215511E0	9,477095630E0
9,724987570E-1	-3,828516230E-2	9,142974854E0	2,390429735E0	9,450376143E0
9,736947460E-1	-3,589234129E-2	9,107083321E0	2,395215511E0	9,416863183E0
9,748907360E-1	-3,110669367E-2	9,066405296E0	2,400001049E0	9,378735398E0
9,760866730E-1	-3,349951655E-2	9,035298347E0	2,404786825E0	9,349905781E0
9,772826630E-1	-4,067798331E-2	9,013762474E0	2,411965132E0	9,330977678E0
9,784786530E-1	-4,307080805E-2	8,985049248E0	2,414358139E0	9,303875015E0
9,796746420E-1	-4,307080805E-2	8,961120605E0	2,421536446E0	9,282638437E0
9,808706320E-1	-4,785645381E-2	8,946763992E0	2,428714991E0	9,270681349E0
9,820666210E-1	-5,742774159E-2	8,920442581E0	2,428714991E0	9,245336678E0
9,832626110E-1	-5,024927482E-2	8,891729355E0	2,433500528E0	9,218855717E0
9,844585480E-1	-4,307080805E-2	8,877371788E0	2,431107759E0	9,204339732E0
9,856545380E-1	-3,110669367E-2	8,860622406E0	2,431107759E0	9,188138113E0
9,868505280E-1	-1,435693540E-2	8,843872070E0	2,447857618E0	9,176398326E0
9,880465170E-1	-1,674975827E-2	8,839086533E0	2,462214470E0	9,175632479E0
9,892425070E-1	-2,632104978E-2	8,841479301E0	2,464607239E0	9,178602174E0
9,904384960E-1	-3,110669367E-2	8,831908226E0	2,464607239E0	9,169397984E0
9,916344860E-1	-3,349951655E-2	8,810373306E0	2,469393015E0	9,149956387E0
9,928304750E-1	-3,110669367E-2	8,788837433E0	2,478964329E0	9,131806787E0
9,940264130E-1	-3,110669367E-2	8,774480820E0	2,498106956E0	9,123213230E0
9,952224030E-1	-3,349951655E-2	8,779266357E0	2,510071039E0	9,131105991E0
9,964183920E-1	-3,349951655E-2	8,776873589E0	2,507678032E0	9,128147749E0
9,976143820E-1	-2,871387079E-2	8,767302513E0	2,517249346E0	9,121565771E0
9,988103710E-1	-1,196411345E-2	8,757730484E0	2,536391973E0	9,117635144E0
1,000006361E0	9,571290575E-3	8,743373871E0	2,553141832E0	9,108524110E0
1,001202350E0	3,110669367E-2	8,726624489E0	2,562713146E0	9,095187808E0
1,002398340E0	5,024927482E-2	8,717052460E0	2,567498684E0	9,087440677E0
1,003594278E0	6,221338734E-2	8,709874153E0	2,567498684E0	9,080629260E0
1,004790267E0	7,657032460E-2	8,683553696E0	2,567498684E0	9,055496524E0
1,005986257E0	9,810572863E-2	8,650053978E0	2,555534601E0	9,020189336E0
1,007182246E0	1,172483116E-1	8,635697365E0	2,545963287E0	9,003940538E0
1,008378236E0	1,339980662E-1	8,635697365E0	2,531606436E0	9,000125310E0
1,009574225E0	1,483550072E-1	8,626125336E0	2,512463808E0	8,985795563E0
1,010770215E0	1,435693651E-1	8,599804878E0	2,493321180E0	8,955105059E0
1,011966205E0	1,220339537E-1	8,580661774E0	2,469393015E0	8,929756470E0
1,013162142E0	1,052841991E-1	8,566305161E0	2,450250387E0	8,910465522E0
1,014358132E0	9,810572863E-2	8,549555779E0	2,438286304E0	8,890993693E0
1,015554121E0	8,135596663E-2	8,537590981E0	2,440679073E0	8,879977077E0
1,016750111E0	6,699903309E-2	8,528019905E0	2,433500528E0	8,868682946E0
1,017946100E0	5,742774159E-2	8,523234367E0	2,416750908E0	8,859430398E0
1,019142090E0	4,307080805E-2	8,516056061E0	2,397608280E0	8,847236370E0
1,020338080E0	3,589234129E-2	8,518448830E0	2,383251429E0	8,845628643E0
1,021534069E0	3,110669367E-2	8,516056061E0	2,373680115E0	8,840731629E0
1,022730007E0	2,153540403E-2	8,501698494E0	2,371287346E0	8,826230494E0
1,023925996E0	2,153540403E-2	8,496912956E0	2,376072884E0	8,822908585E0
1,025121986E0	3,349951655E-2	8,484949112E0	2,378465652E0	8,812070274E0
1,026317975E0	4,546362907E-2	8,472985268E0	2,373680115E0	8,799312676E0
1,027513965E0	6,939185411E-2	8,465806961E0	2,368894339E0	8,791266298E0
1,028709955E0	1,028913707E-1	8,449056625E0	2,371287346E0	8,776112361E0
1,029905944E0	1,339980662E-1	8,425128937E0	2,371287346E0	8,753499686E0
1,031101934E0	1,603191197E-1	8,415556908E0	2,378465652E0	8,746679321E0
1,032297923E0	1,842473447E-1	8,403593063E0	2,385644197E0	8,737598165E0
1,033493861E0	2,081755698E-1	8,377271652E0	2,395215511E0	8,715450347E0
1,034689850E0	2,321037948E-1	8,358129501E0	2,395215511E0	8,697658207E0
1,035885840E0	2,464607358E-1	8,331808090E0	2,404786825E0	8,675411726E0
1,037081830E0	2,464607358E-1	8,310273170E0	2,411965132E0	8,656729109E0
1,038277819E0	2,416750938E-1	8,295916557E0	2,414358139E0	8,643480989E0
1,039473809E0	2,344966233E-1	8,276773453E0	2,419143677E0	8,626252001E0
1,040669798E0	2,368894368E-1	8,267202377E0	2,421536446E0	8,617806595E0
1,041865736E0	2,368894368E-1	8,257631302E0	2,419143677E0	8,607952570E0
1,043061725E0	2,081755698E-1	8,252845764E0	2,421536446E0	8,603292337E0
1,044257715E0	1,770688742E-1	8,262416840E0	2,433500528E0	8,615150042E0
1,045453705E0	1,507478207E-1	8,260024071E0	2,438286304E0	8,613707834E0
1,046649694E0	1,220339537E-1	8,252845764E0	2,445464849E0	8,608405998E0
1,047845684E0	9,810572863E-2	8,257631302E0	2,457428932E0	8,616092874E0
1,049041673E0	7,178468257E-2	8,262416840E0	2,464607239E0	8,622469131E0
1,050237663E0	4,307080805E-2	8,257631302E0	2,474178553E0	8,620434405E0
1,051433653E0	1,914258115E-2	8,252845764E0	2,486142635E0	8,619207321E0
1,052629590E0	4,785645287E-3	8,257631302E0	2,486142635E0	8,623769641E0
1,053825580E0	-1,435693540E-2	8,260024071E0	2,476571321E0	8,623317765E0
1,055021569E0	-3,110669367E-2	8,260024071E0	2,469393015E0	8,621303100E0
1,056217559E0	-3,110669367E-2	8,250452042E0	2,459821701E0	8,609393087E0
1,057413548E0	-2,392822690E-2	8,238488197E0	2,438286304E0	8,591769343E0
1,058609538E0	-2,153540403E-2	8,228917122E0	2,411965132E0	8,575145280E0
1,059805528E0	-1,674975827E-2	8,216953278E0	2,395215511E0	8,558951984E0
1,061001465E0	-9,571290575E-3	8,214560509E0	2,388036966E0	8,554637135E0
1,062197455E0	-1,914258115E-2	8,207381248E0	2,383251429E0	8,546423858E0
1,063393444E0	-2,632104978E-2	8,202595711E0	2,376072884E0	8,539847278E0
1,064589434E0	-3,110669367E-2	8,197810173E0	2,373680115E0	8,534601136E0
1,065785423E0	-2,632104978E-2	8,193024635E0	2,364108801E0	8,527329939E0
1,066981413E0	-2,153540403E-2	8,195417404E0	2,364108801E0	8,529615503E0
1,068177403E0	-2,632104978E-2	8,202595711E0	2,371287346E0	8,538517018E0
1,069373392E0	-1,196411345E-2	8,204988480E0	2,361716032E0	8,538131043E0
1,070569330E0	1,196411345E-2	8,202595711E0	2,344966173E0	8,531212451E0
1,071765319E0	2,871387079E-2	8,202595711E0	2,335394859E0	8,528626503E0
1,072961309E0	4,067798331E-2	8,197810173E0	2,323430777E0	8,520802597E0
1,074157298E0	5,982056633E-2	8,188239098E0	2,316252232E0	8,509751020E0
1,075353288E0	9,092725813E-2	8,185846329E0	2,306680918E0	8,505123441E0
1,076549278E0	1,172483116E-1	8,178668022E0	2,289931297E0	8,494006306E0
1,077745267E0	1,244267747E-1	8,173882484E0	2,280359983E0	8,486923974E0
1,078941257E0	1,411765367E-1	8,171489716E0	2,277967215E0	8,484238894E0
1,080137246E0	1,674975902E-1	8,171489716E0	2,275574446E0	8,484075593E0
1,081333184E0	1,842473447E-1	8,181060791E0	2,266003132E0	8,491081965E0
1,082529173E0	2,033899277E-1	8,202595711E0	2,244467735E0	8,506560954E0
1,083725163E0	2,273181528E-1	8,214560509E0	2,225325108E0	8,513680152E0
1,084921153E0	2,536391914E-1	8,224131584E0	2,208575249E0	8,519300311E0
1,086117142E0	2,679961324E-1	8,228917122E0	2,182254314E0	8,517577873E0
1,087313132E0	2,799602449E-1	8,231309891E0	2,153540373E0	8,512965194E0
1,088509121E0	3,038884699E-1	8,238488197E0	2,134397745E0	8,515908038E0
1,089705059E0	3,206382394E-1	8,245666504E0	2,112862349E0	8,518099100E0
1,090901048E0	3,445664644E-1	8,257631302E0	2,079362869E0	8,522379404E0
1,092097038E0	3,517449200E-1	8,257631302E0	2,045863390E0	8,514561422E0
1,093293028E0	3,517449200E-1	8,267202377E0	2,002792597E0	8,513608978E0
1,094489017E0	3,756731451E-1	8,283951759E0	1,959721804E0	8,520885905E0
1,095685007E0	3,996013701E-1	8,298309326E0	1,933400750E0	8,529927162E0
1,096880996E0	4,235295951E-1	8,307880402E0	1,916650891E0	8,536615531E0
1,098076986E0	4,522434771E-1	8,312665939E0	1,887937069E0	8,536348491E0
1,099272975E0	4,785645306E-1	8,319844246E0	1,849651933E0	8,536395291E0
1,100468913E0	5,024927258E-1	8,331808090E0	1,818545222E0	8,542753170E0
1,101664903E0	5,144568682E-1	8,346165657E0	1,799402595E0	8,553420178E0
1,102860892E0	5,168496966E-1	8,360522270E0	1,782652855E0	8,564071312E0
1,104056882E0	5,312066078E-1	8,367700577E0	1,758724689E0	8,567012661E0
1,105252871E0	5,359922647E-1	8,367700577E0	1,739582062E0	8,563401567E0
1,106448861E0	5,503492355E-1	8,374878883E0	1,727617979E0	8,568905675E0
1,107644850E0	5,742774606E-1	8,389236450E0	1,725225091E0	8,584024955E0
1,108840788E0	5,934200287E-1	8,403593063E0	1,720439434E0	8,598397266E0
1,110036778E0	6,149554253E-1	8,410771370E0	1,698904037E0	8,602646113E0
1,111232767E0	6,245267391E-1	8,410771370E0	1,682154298E0	8,600043707E0
1,112428757E0	6,197410822E-1	8,413164139E0	1,677368641E0	8,601103150E0
1,113624746E0	6,221339107E-1	8,420342445E0	1,663011789E0	8,605511357E0
1,114820736E0	6,293123364E-1	8,429914474E0	1,639083505E0	8,610812203E0
1,116016725E0	6,245267391E-1	8,434700012E0	1,615155339E0	8,610628590E0
1,117212715E0	6,269195080E-1	8,437092781E0	1,588834286E0	8,608249361E0
1,118408705E0	6,293123364E-1	8,449056625E0	1,567298889E0	8,616206688E0
1,119604642E0	6,101697683E-1	8,468199730E0	1,540977836E0	8,628865887E0
1,120800632E0	5,838487148E-1	8,494520187E0	1,505085468E0	8,646562022E0
1,121996621E0	5,623133183E-1	8,504091263E0	1,483550072E0	8,650819920E0
1,123192611E0	5,479564071E-1	8,506484032E0	1,454836130E0	8,647373877E0
1,124388600E0	5,359922647E-1	8,513663292E0	1,433300734E0	8,650092563E0
1,125584590E0	5,240281820E-1	8,525627136E0	1,438086390E0	8,661929119E0
1,126780580E0	5,192425251E-1	8,542376518E0	1,447657704E0	8,679719017E0
1,127976517E0	5,120640397E-1	8,547162056E0	1,447657704E0	8,684002627E0
1,129172507E0	5,048855543E-1	8,559126854E0	1,435693622E0	8,693375530E0
1,130368496E0	4,857429862E-1	8,566305161E0	1,414158225E0	8,695825081E0
1,131564486E0	4,618147612E-1	8,568697929E0	1,395015597E0	8,693786609E0
1,132760475E0	4,498506486E-1	8,559126854E0	1,378265858E0	8,681050333E0
1,133956465E0	4,378865361E-1	8,535198212E0	1,349551916E0	8,652320123E0
1,135152455E0	4,139583111E-1	8,513663292E0	1,308874011E0	8,623628894E0
1,136348444E0	3,804588020E-1	8,508877754E0	1,265803218E0	8,610923721E0
1,137544434E0	3,445664644E-1	8,501698494E0	1,210768223E0	8,594391370E0
1,138740371E0	2,991028428E-1	8,489734650E0	1,162911773E0	8,574230037E0
1,139936361E0	2,584248483E-1	8,477770805E0	1,117448211E0	8,555002731E0
1,141132350E0	2,249253243E-1	8,475378036E0	1,076770186E0	8,546464667E0
1,142328340E0	1,722832322E-1	8,484949112E0	1,036092162E0	8,549709347E0
1,143524330E0	1,292124242E-1	8,501698494E0	9,978070259E-1	8,561027508E0
1,144720319E0	1,052841991E-1	8,520841599E0	9,786644578E-1	8,577506073E0
1,145916309E0	9,092725813E-2	8,535198212E0	9,690931439E-1	8,590519065E0
1,147112246E0	6,939185411E-2	8,539983749E0	9,643075466E-1	8,594534700E0
1,148308236E0	5,264209956E-2	8,535198212E0	9,595218897E-1	8,589124633E0
1,149504225E0	4,546362907E-2	8,542376518E0	9,547362328E-1	8,595684080E0
1,150700215E0	3,828516230E-2	8,554341316E0	9,427721500E-1	8,606221031E0
1,151896205E0	3,349951655E-2	8,559126854E0	9,308080077E-1	8,609656106E0
1,153092194E0	3,110669367E-2	8,566305161E0	9,188438654E-1	8,615499160E0
1,154288184E0	2,392822690E-2	8,563912392E0	9,068797827E-1	8,611829013E0
1,155484173E0	1,196411345E-2	8,559126854E0	8,973084688E-1	8,606041955E0
1,156680163E0	9,571290575E-3	8,544769287E0	8,853443861E-1	8,590518521E0
1,157876100E0	1,196411345E-2	8,535198212E0	8,781659007E-1	8,580263807E0
1,159072090E0	1,674975827E-2	8,530412674E0	8,757730722E-1	8,575266726E0
1,160268080E0	1,435693540E-2	8,523234367E0	8,805587292E-1	8,568612133E0
1,161464069E0	7,178467698E-3	8,513663292E0	8,901300430E-1	8,560072761E0
1,162660059E0	7,178467698E-3	8,508877754E0	9,068797827E-1	8,557072111E0
1,163856048E0	1,196411345E-2	8,516056061E0	9,260223508E-1	8,566263559E0
1,165052038E0	4,785645287E-3	8,532805443E0	9,499505758E-1	8,585522566E0
1,166248028E0	0,000000000E0	8,551948547E0	9,810572863E-1	8,608036789E0
1,167443965E0	0,000000000E0	8,571090698E0	1,004985452E0	8,629808313E0
1,168639955E0	-4,785645287E-3	8,575876236E0	1,021735311E0	8,636528189E0
1,169835944E0	-7,178467698E-3	8,571090698E0	1,043270707E0	8,634353540E0
1,171031934E0	-4,785645287E-3	8,573483467E0	1,074377418E0	8,640539827E0
1,172227923E0	-9,571290575E-3	8,580661774E0	1,119840980E0	8,653432377E0
1,173423913E0	-1,914258115E-2	8,590232849E0	1,162911773E0	8,668611805E0
1,174619903E0	-1,674975827E-2	8,606983185E0	1,194018483E0	8,689425771E0
1,175815892E0	-9,571290575E-3	8,623732567E0	1,220339537E0	8,709654619E0
1,177011830E0	-2,392822644E-3	8,623732567E0	1,241874933E0	8,712693181E0
1,178207819E0	2,392822644E-3	8,621339798E0	1,261017561E0	8,713074711E0
1,179403809E0	-2,392822644E-3	8,614161491E0	1,280160069E0	8,708765339E0
1,180599798E0	-7,178467698E-3	8,611768723E0	1,296909928E0	8,708879803E0
1,181795788E0	-9,571290575E-3	8,614161491E0	1,308874011E0	8,713037414E0
1,182991778E0	-9,571290575E-3	8,602197647E0	1,311266780E0	8,701569774E0
1,184187767E0	-1,196411345E-2	8,590232849E0	1,296909928E0	8,687589936E0
1,185383705E0	-2,632104978E-2	8,597412109E0	1,287338614E0	8,693297906E0
1,186579694E0	-4,067798331E-2	8,618947029E0	1,272981644E0	8,712541814E0
1,187775684E0	-5,503492057E-2	8,635697365E0	1,246660590E0	8,725391707E0
1,188971673E0	-7,896314561E-2	8,647661209E0	1,227517962E0	8,734705485E0
1,190167663E0	-1,124626622E-1	8,671588898E0	1,217946768E0	8,757425203E0
1,191363653E0	-1,531406492E-1	8,693124771E0	1,210768223E0	8,778372858E0
1,192559642E0	-1,914258152E-1	8,712266922E0	1,201196909E0	8,796767178E0
1,193755632E0	-2,249253243E-1	8,733802795E0	1,194018483E0	8,817912611E0
1,194951621E0	-2,392822653E-1	8,748159409E0	1,198804140E0	8,833158009E0
1,196147559E0	-2,560320199E-1	8,764909744E0	1,217946768E0	8,852829466E0
1,197343548E0	-2,632105052E-1	8,781659126E0	1,244267821E0	8,873275562E0
1,198539538E0	-2,584248483E-1	8,793622971E0	1,270588875E0	8,888699817E0
1,199735528E0	-2,608176768E-1	8,810373306E0	1,306481123E0	8,910532901E0
1,200931517E0	-2,727817893E-1	8,834300995E0	1,337587833E0	8,939151256E0
1,202127507E0	-2,775674164E-1	8,848658562E0	1,363908887E0	8,957457757E0
1,203323496E0	-2,775674164E-1	8,853444099E0	1,390229940E0	8,966228604E0
1,204519486E0	-2,656033039E-1	8,855836868E0	1,418943882E0	8,972724976E0
1,205715423E0	-2,512463629E-1	8,858229637E0	1,442872047E0	8,978487444E0
1,206911413E0	-2,440679073E-1	8,870193481E0	1,447657704E0	8,990862827E0
1,208107403E0	-2,368894368E-1	8,882157326E0	1,457229018E0	9,004018646E0
1,209303392E0	-2,297109663E-1	8,889336586E0	1,478764415E0	9,014422680E0
1,210499382E0	-2,201396823E-1	8,896514893E0	1,500299811E0	9,024817906E0
1,211695371E0	-2,201396823E-1	8,906085968E0	1,507478237E0	9,035447935E0
1,212891361E0	-2,201396823E-1	8,920442581E0	1,505085468E0	9,049201047E0
1,214087298E0	-2,201396823E-1	8,927620888E0	1,505085468E0	9,056277296E0
1,215283288E0	-2,321037948E-1	8,941978455E0	1,514656782E0	9,072322526E0
1,216479278E0	-2,297109663E-1	8,953942299E0	1,512263894E0	9,083655206E0
1,217675267E0	-2,297109663E-1	8,965906143E0	1,502692580E0	9,093861946E0
1,218871257E0	-2,368894368E-1	8,985049248E0	1,502692580E0	9,112920036E0
1,220067246E0	-2,392822653E-1	9,008976936E0	1,507478237E0	9,137363519E0
1,221263236E0	-2,464607358E-1	9,035298347E0	1,514656782E0	9,164690081E0
1,222459225E0	-2,440679073E-1	9,056833267E0	1,524227977E0	9,187440824E0
1,223655215E0	-2,440679073E-1	9,061619759E0	1,538584948E0	9,194550855E0
1,224851153E0	-2,368894368E-1	9,066405296E0	1,555334687E0	9,201895869E0
1,226047142E0	-2,225325108E-1	9,071190834E0	1,557727575E0	9,206657323E0
1,227243132E0	-2,249253243E-1	9,080761909E0	1,557727575E0	9,216145803E0
1,228439121E0	-2,201396823E-1	9,097511292E0	1,557727575E0	9,232534234E0
1,229635111E0	-2,057827413E-1	9,107083321E0	1,555334687E0	9,241232555E0
1,230831100E0	-2,009970993E-1	9,109476089E0	1,552941918E0	9,243082985E0
1,232027090E0	-1,938186288E-1	9,114261627E0	1,552941918E0	9,247646148E0
1,233223080E0	-1,914258152E-1	9,114261627E0	1,540977836E0	9,245594710E0
1,234419017E0	-1,914258152E-1	9,123832703E0	1,521835208E0	9,251861944E0
1,235615007E0	-1,818545163E-1	9,138189316E0	1,497906923E0	9,261927455E0
1,236810996E0	-1,842473447E-1	9,142974854E0	1,485942841E0	9,264769958E0
1,238006986E0	-2,009970993E-1	9,150154114E0	1,485942841E0	9,272202881E0
1,239202975E0	-2,081755698E-1	9,162117958E0	1,471585870E0	9,281880602E0
1,240398965E0	-2,201396823E-1	9,174081802E0	1,452443361E0	9,290954209E0
1,241594955E0	-2,321037948E-1	9,186046600E0	1,435693622E0	9,300459155E0
1,242790892E0	-2,440679073E-1	9,217152596E0	1,426122308E0	9,330021219E0
1,243986882E0	-2,632105052E-1	9,253045082E0	1,416550994E0	9,364546961E0
1,245182871E0	-2,823530734E-1	9,276973724E0	1,411765337E0	9,388026742E0
1,246378861E0	-3,086741269E-1	9,308079720E0	1,404586911E0	9,418518576E0
1,247574850E0	-3,349951804E-1	9,329615593E0	1,387837172E0	9,438222338E0
1,248770840E0	-3,445664644E-1	9,346364975E0	1,385444283E0	9,454772348E0
1,249966830E0	-3,373879790E-1	9,365508080E0	1,392622828E0	9,474490518E0
1,251162819E0	-3,397808075E-1	9,377471924E0	1,380658627E0	9,484653337E0
1,252358809E0	-3,493520916E-1	9,391828537E0	1,361516118E0	9,496431766E0
1,253554746E0	-3,493520916E-1	9,406186104E0	1,351944804E0	9,509265937E0
1,254750736E0	-3,469592929E-1	9,415757179E0	1,351944804E0	9,518645847E0
1,255946725E0	-3,397808075E-1	9,425328255E0	1,354337573E0	9,528194686E0
1,257142715E0	-3,397808075E-1	9,439684868E0	1,347159147E0	9,541380360E0
1,258338705E0	-3,541377485E-1	9,456435204E0	1,323230863E0	9,555130571E0
1,259534694E0	-3,661018610E-1	9,461220741E0	1,301695466E0	9,557360492E0
1,260730684E0	-3,804588020E-1	9,466006279E0	1,292124271E0	9,561360202E0
1,261926621E0	-3,828516304E-1	9,477970123E0	1,287338614E0	9,572655522E0
1,263122611E0	-3,708875179E-1	9,492327690E0	1,284945726E0	9,586079910E0
1,264318600E0	-3,756731451E-1	9,521040916E0	1,277767301E0	9,613742233E0
1,265514590E0	-3,924229145E-1	9,556933403E0	1,284945726E0	9,650909664E0
1,266710580E0	-4,019941986E-1	9,580862045E0	1,296909928E0	9,676595074E0
1,267906569E0	-3,924229145E-1	9,607182503E0	1,306481123E0	9,703548027E0
1,269102559E0	-3,852444589E-1	9,628718376E0	1,318445325E0	9,726198072E0
1,270298548E0	-3,804588020E-1	9,628718376E0	1,337587833E0	9,728623113E0
1,271494486E0	-3,708875179E-1	9,647860527E0	1,356730461E0	9,749845529E0
1,272690475E0	-3,517449200E-1	9,674181938E0	1,373480201E0	9,777523640E0
1,273886465E0	-3,349951804E-1	9,688538551E0	1,390229940E0	9,793505007E0
1,275082455E0	-3,278166950E-1	9,702896118E0	1,404586911E0	9,809511775E0
1,276278444E0	-3,110669553E-1	9,719645500E0	1,423729420E0	9,828289615E0
1,277474434E0	-2,919243574E-1	9,734002113E0	1,445264935E0	9,845039751E0
1,278670423E0	-2,799602449E-1	9,738788605E0	1,464407444E0	9,852252047E0
1,279866413E0	-2,608176768E-1	9,745966911E0	1,497906923E0	9,863854320E0
1,281062350E0	-2,249253243E-1	9,757930756E0	1,531406522E0	9,879929654E0
1,282258340E0	-1,938186288E-1	9,774680138E0	1,560120344E0	9,900298629E0
1,283454330E0	-1,722832322E-1	9,789037704E0	1,586441398E0	9,918252719E0
1,284650319E0	-1,316052526E-1	9,798608780E0	1,598405480E0	9,928995621E0
1,285846309E0	-7,896314561E-2	9,810572624E0	1,619940877E0	9,943730630E0
1,287042298E0	-2,871387079E-2	9,820143700E0	1,641476393E0	9,956429657E0
1,288238288E0	1,914258115E-2	9,822537422E0	1,641476393E0	9,958767624E0
1,289434278E0	5,264209956E-2	9,827322960E0	1,636690736E0	9,962821102E0
1,290630215E0	9,092725813E-2	9,853643417E0	1,639083505E0	9,989451992E0
1,291826205E0	1,220339537E-1	9,899106979E0	1,641476393E0	1,003502148E1
1,293022194E0	1,459621787E-1	9,930213928E0	1,639083505E0	1,006563701E1
1,294218184E0	1,698904037E-1	9,958928108E0	1,646261930E0	1,009550842E1
1,295414173E0	1,842473447E-1	9,990034103E0	1,660618901E0	1,012878984E1
1,296610163E0	1,938186288E-1	1,001396275E1	1,672582984E0	1,015453344E1
1,297806153E0	2,009970993E-1	1,004985523E1	1,679761529E0	1,019125060E1
1,299002142E0	2,105683982E-1	1,007617569E1	1,686939955E0	1,021858219E1
1,300198132E0	2,177468538E-1	1,009771156E1	1,694118381E0	1,024115372E1
1,301394069E0	2,201396823E-1	1,011685371E1	1,694118381E0	1,026007932E1
1,302590059E0	2,273181528E-1	1,012642574E1	1,694118381E0	1,026967424E1
1,303786048E0	2,321037948E-1	1,014796066E1	1,698904037E0	1,029180512E1
1,304982038E0	2,273181528E-1	1,017667484E1	1,701296926E0	1,032040676E1
1,306178028E0	2,321037948E-1	1,019820976E1	1,718046665E0	1,034451733E1
1,307374017E0	2,416750938E-1	1,021256733E1	1,734796405E0	1,036168215E1
1,308570007E0	2,464607358E-1	1,021974564E1	1,751546144E0	1,037168538E1
1,309765944E0	2,488535494E-1	1,022213840E1	1,761117458E0	1,037572052E1
1,310961934E0	2,560320199E-1	1,022692394E1	1,768295884E0	1,038183009E1
1,312157923E0	2,679961324E-1	1,022213840E1	1,782652855E0	1,037987412E1
1,313353913E0	2,799602449E-1	1,021974564E1	1,789831281E0	1,037906906E1
1,314549903E0	2,799602449E-1	1,023170948E1	1,797009826E0	1,039208838E1
1,315745892E0	2,703889608E-1	1,024367332E1	1,806581140E0	1,040527216E1
1,316941882E0	2,775674164E-1	1,025324535E1	1,823330879E0	1,041780300E1
1,318137871E0	2,967100143E-1	1,026520920E1	1,849651933E0	1,043473857E1
1,319333809E0	3,086741269E-1	1,026999474E1	1,885544300E0	1,044621218E1
1,320529798E0	3,014956415E-1	1,027956581E1	1,907079697E0	1,045931766E1
1,321725788E0	2,919243574E-1	1,029870892E1	1,923829436E0	1,048092290E1
1,322921778E0	2,919243574E-1	1,031545830E1	1,942971945E0	1,050090661E1
1,324117767E0	2,871387303E-1	1,032502937E1	1,959721804E0	1,051328634E1
1,325313757E0	2,895315289E-1	1,032024384E1	1,981257200E0	1,051268954E1
1,326509746E0	3,086741269E-1	1,032024384E1	2,000399828E0	1,051685847E1
1,327705736E0	3,110669553E-1	1,032502937E1	2,024327993E0	1,052620055E1
1,328901673E0	3,014956415E-1	1,032024384E1	2,043470621E0	1,052492777E1
1,330097663E0	2,943171859E-1	1,032263660E1	2,055434704E0	1,052939984E1
1,331293653E0	2,895315289E-1	1,032981491E1	2,060220242E0	1,053723930E1
1,332489642E0	2,847459018E-1	1,033460140E1	2,060220242E0	1,054180126E1
1,333685632E0	2,703889608E-1	1,033699417E1	2,065006018E0	1,054470524E1
1,334881621E0	2,560320199E-1	1,033460140E1	2,067398787E0	1,054247012E1
1,336077611E0	2,440679073E-1	1,034656525E1	2,074577332E0	1,055532343E1
1,337273600E0	2,297109663E-1	1,036092186E1	2,072184324E0	1,056860524E1
1,338469538E0	2,129612118E-1	1,037767220E1	2,053041935E0	1,058094579E1
1,339665528E0	2,033899277E-1	1,038485050E1	2,036292076E0	1,058456295E1
1,340861517E0	1,914258152E-1	1,040159988E1	2,026720762E0	1,059893962E1
1,342057507E0	1,818545163E-1	1,041835022E1	2,021935225E0	1,061429764E1
1,343253496E0	1,698904037E-1	1,042792130E1	2,012363911E0	1,062167660E1
1,344449486E0	1,579262912E-1	1,045184898E1	2,012363911E0	1,064498457E1
1,345645475E0	1,531406492E-1	1,048056316E1	2,019542217E0	1,067446519E1
1,346841465E0	1,459621787E-1	1,049970531E1	2,014756680E0	1,069225706E1
1,348037403E0	1,363908947E-1	1,052602673E1	2,007578135E0	1,071663245E1
1,349233392E0	1,220339537E-1	1,056909752E1	2,005185366E0	1,075832157E1
1,350429382E0	9,810572863E-2	1,060259724E1	2,005185366E0	1,079098982E1
1,351625371E0	6,699903309E-2	1,063848972E1	1,988435626E0	1,082293069E1
1,352821361E0	4,307080805E-2	1,067916775E1	1,950150490E0	1,085585399E1
1,354017350E0	1,435693540E-2	1,072941685E1	1,911865234E0	1,089843203E1
1,355213340E0	-2,392822690E-2	1,078445148E1	1,875972986E0	1,094642595E1
1,356409330E0	-5,264209956E-2	1,084666538E1	1,837687731E0	1,100136434E1
1,357605267E0	-7,657032460E-2	1,091127110E1	1,801795483E0	1,105930228E1
1,358801257E0	-1,004985496E-1	1,096869946E1	1,770688772E0	1,111115684E1
1,359997246E0	-1,172483116E-1	1,102134132E1	1,746760488E0	1,115951988E1
1,361193236E0	-1,292124242E-1	1,107398319E1	1,710868239E0	1,120610859E1
1,362389225E0	-1,435693651E-1	1,111944675E1	1,667797327E0	1,124474349E1
1,363585215E0	-1,483550072E-1	1,114576817E1	1,622333765E0	1,126419656E1
1,364781205E0	-1,507478207E-1	1,117687416E1	1,574477315E0	1,128823368E1
1,365977194E0	-1,459621787E-1	1,122473145E1	1,521835208E0	1,132836632E1
1,367173132E0	-1,363908947E-1	1,128215885E1	1,476371527E0	1,137916446E1
1,368369121E0	-1,244267747E-1	1,133240795E1	1,433300734E0	1,142336653E1
1,369565111E0	-1,028913707E-1	1,137308598E1	1,383051515E0	1,145733402E1
1,370761100E0	-9,092725813E-2	1,141137123E1	1,323230863E0	1,148819399E1
1,371957090E0	-7,657032460E-2	1,143769264E1	1,268195987E0	1,150804054E1
1,373153080E0	-5,503492057E-2	1,146401310E1	1,227517962E0	1,152967586E1
1,374349069E0	-2,632104978E-2	1,149512005E1	1,186840057E0	1,155625662E1
1,375545059E0	1,196411345E-2	1,151426220E1	1,143769264E0	1,157093710E1
1,376740996E0	5,503492057E-2	1,151904774E1	1,100698471E0	1,157164754E1
1,377936986E0	9,092725813E-2	1,153101254E1	1,060020447E0	1,157998969E1
1,379132975E0	1,387837082E-1	1,154297638E1	1,007378340E0	1,158768207E1
1,380328965E0	2,033899277E-1	1,153340530E1	9,499505758E-1	1,157424777E1
1,381524955E0	2,632105052E-1	1,151904774E1	9,068797827E-1	1,155768885E1
1,382720944E0	3,206382394E-1	1,151904774E1	8,805587292E-1	1,155710402E1
1,383916934E0	3,852444589E-1	1,153101254E1	8,662018180E-1	1,156991655E1
1,385112923E0	4,546363056E-1	1,154536915E1	8,470591903E-1	1,158532486E1
1,386308861E0	5,096712112E-1	1,155494022E1	8,255237937E-1	1,159559821E1
1,387504850E0	5,694918036E-1	1,156690502E1	8,111668825E-1	1,160928957E1
1,388700840E0	6,245267391E-1	1,158604717E1	7,992027402E-1	1,163035888E1
1,389896830E0	6,723831892E-1	1,160279655E1	7,872386575E-1	1,164889401E1
1,391092819E0	7,250252366E-1	1,161715412E1	7,752745152E-1	1,166554680E1
1,392288809E0	7,633104324E-1	1,163390350E1	7,728816867E-1	1,168450682E1
1,393484798E0	7,896314859E-1	1,166022491E1	7,800601721E-1	1,171293545E1
1,394680788E0	8,207381964E-1	1,168175983E1	7,920243144E-1	1,173730917E1
1,395876725E0	8,566305041E-1	1,170808125E1	8,063812256E-1	1,176704011E1
1,397072715E0	8,973084688E-1	1,173200989E1	8,207381964E-1	1,179486455E1
1,398268705E0	9,308080077E-1	1,174397373E1	8,542376757E-1	1,181173334E1
1,399464694E0	9,547362328E-1	1,175354481E1	8,877372146E-1	1,182562532E1
1,400660684E0	9,690931439E-1	1,177268696E1	9,236295223E-1	1,184856072E1
1,401856673E0	9,834501147E-1	1,178225899E1	9,643075466E-1	1,186249089E1
1,403052663E0	1,014556766E0	1,177747345E1	1,002592683E0	1,186353229E1
1,404248653E0	1,055234790E0	1,177986622E1	1,028913736E0	1,187170721E1
1,405444590E0	1,083948612E0	1,177508068E1	1,057627559E0	1,187206998E1
1,406640580E0	1,103091240E0	1,175354481E1	1,091127157E0	1,185551282E1
1,407836569E0	1,115055323E0	1,173200989E1	1,136590719E0	1,183956261E1
1,409032559E0	1,115055323E0	1,171047401E1	1,203589797E0	1,182485427E1
1,410228548E0	1,105484009E0	1,169372463E1	1,280160069E0	1,181541791E1
1,411424538E0	1,103091240E0	1,168893814E1	1,351944804E0	1,181845336E1
1,412620528E0	1,093519926E0	1,167218876E1	1,421336651E0	1,180914790E1
1,413816517E0	1,079162955E0	1,163868904E1	1,488335729E0	1,178298852E1
1,415012455E0	1,074377418E0	1,160758305E1	1,552941918E0	1,176018280E1
1,416208444E0	1,071984529E0	1,158604717E1	1,610369682E0	1,174644331E1
1,417404434E0	1,064806104E0	1,157408333E1	1,667797327E0	1,174200855E1
1,418600423E0	1,040877819E0	1,155972576E1	1,720439434E0	1,173331147E1
1,419796413E0	1,026520967E0	1,153579807E1	1,770688772E0	1,171596011E1
1,420992403E0	1,033699393E0	1,149033451E1	1,816152334E0	1,167881548E1
1,422188392E0	1,036092162E0	1,145444202E1	1,856830359E0	1,165013082E1
1,423384330E0	1,033699393E0	1,142572784E1	1,899901152E0	1,162864634E1
1,424580319E0	1,043270707E0	1,140180016E1	1,945364833E0	1,161352250E1
1,425776309E0	1,048056364E0	1,137787151E1	1,983649969E0	1,159695001E1
1,426972298E0	1,052842021E0	1,134676456E1	2,019542217E0	1,157307622E1
1,428168288E0	1,069591761E0	1,130608654E1	2,050648928E0	1,154022445E1
1,429364278E0	1,081555843E0	1,127019501E1	2,079362869E0	1,151133391E1
1,430560267E0	1,091127157E0	1,124387360E1	2,093719721E0	1,148907804E1
1,431756257E0	1,119840980E0	1,121515942E1	2,110469580E0	1,146681849E1
1,432952246E0	1,155733347E0	1,118883896E1	2,129612207E0	1,144819134E1
1,434148184E0	1,189232826E0	1,115533924E1	2,148754835E0	1,142247852E1
1,435344173E0	1,220339537E0	1,113619614E1	2,167897224E0	1,141069110E1
1,436540163E0	1,246660590E0	1,112662506E1	2,170290232E0	1,140465289E1
1,437736153E0	1,275374413E0	1,111466122E1	2,163111687E0	1,139479381E1
1,438932142E0	1,292124271E0	1,109312534E1	2,175075769E0	1,137795982E1
1,440128132E0	1,311266780E0	1,107398319E1	2,194218397E0	1,136517130E1
1,441324121E0	1,330409408E0	1,105723381E1	2,201396942E0	1,135246921E1
1,442520111E0	1,337587833E0	1,103569794E1	2,206182480E0	1,133327011E1
1,443716048E0	1,342373490E0	1,101894855E1	2,208575249E0	1,131799445E1
1,444912038E0	1,351944804E0	1,100698376E1	2,215753794E0	1,130889080E1
1,446108028E0	1,371087432E0	1,099501991E1	2,230110645E0	1,130237750E1
1,447304017E0	1,402194023E0	1,099262714E1	2,244467735E0	1,130670752E1
1,448500007E0	1,423729420E0	1,099023438E1	2,246860504E0	1,130754789E1
1,449695996E0	1,428515077E0	1,099262714E1	2,239681959E0	1,130905310E1
1,450891986E0	1,442872047E0	1,099980545E1	2,237289190E0	1,131737879E1
1,452087975E0	1,471585870E0	1,099262714E1	2,222932339E0	1,131127069E1
1,453283913E0	1,497906923E0	1,098544884E1	2,203789711E0	1,130400373E1
1,454479903E0	1,524227977E0	1,098544884E1	2,177468538E0	1,130242126E1
1,455675892E0	1,543370605E0	1,097827053E1	2,151147604E0	1,129300016E1
1,456871882E0	1,550549030E0	1,097587776E1	2,112862349E0	1,128442654E1
1,458067871E0	1,555334687E0	1,098066330E1	2,062613010E0	1,128044347E1
1,459263861E0	1,567298889E0	1,099023438E1	2,007578135E0	1,128149136E1
1,460459850E0	1,569691658E0	1,098544884E1	1,952543259E0	1,126749498E1
1,461655840E0	1,557727575E0	1,097109222E1	1,897508383E0	1,124241601E1
1,462851778E0	1,540977836E0	1,097109222E1	1,830509305E0	1,122899112E1
1,464047767E0	1,533799291E0	1,097587776E1	1,770688772E0	1,122309100E1
1,465243757E0	1,536192179E0	1,098066330E1	1,715653777E0	1,121955083E1
1,466439746E0	1,531406522E0	1,098784161E1	1,663011789E0	1,121799792E1
1,467635736E0	1,521835208E0	1,099501991E1	1,612762451E0	1,121639193E1
1,468831725E0	1,512263894E0	1,099980545E1	1,562513232E0	1,121267629E1
1,470027715E0	1,502692580E0	1,099741268E1	1,519442320E0	1,120311901E1
1,471223705E0	1,473978758E0	1,099741268E1	1,481157184E0	1,119417374E1
1,472419642E0	1,442872047E0	1,100219822E1	1,438086390E0	1,118920631E1
1,473615632E0	1,426122308E0	1,100937653E1	1,399801254E0	1,118926449E1
1,474811621E0	1,404586911E0	1,101655579E1	1,373480201E0	1,119034466E1
1,476007611E0	1,375872970E0	1,102134132E1	1,361516118E0	1,119002758E1
1,477203600E0	1,366301775E0	1,101416302E1	1,344766378E0	1,117975689E1
1,478399590E0	1,363908887E0	1,099023438E1	1,320838094E0	1,115303153E1
1,479595580E0	1,359123230E0	1,096630573E1	1,308874011E0	1,112745382E1
1,480791569E0	1,347159147E0	1,094716358E1	1,304088354E0	1,110656899E1
1,481987507E0	1,335195065E0	1,093041420E1	1,294517040E0	1,108749182E1
1,483183496E0	1,328016520E0	1,090887833E1	1,282552958E0	1,106400453E1
1,484379486E0	1,323230863E0	1,088973618E1	1,275374413E0	1,104372554E1
1,485575475E0	1,306481123E0	1,087537861E1	1,265803218E0	1,102646864E1
1,486771465E0	1,296909928E0	1,087059307E1	1,258624673E0	1,101979606E1
1,487967455E0	1,296909928E0	1,085862923E1	1,263410330E0	1,100854258E1
1,489163444E0	1,282552958E0	1,082752228E1	1,270588875E0	1,097700218E1
1,490359434E0	1,258624673E0	1,080838013E1	1,272981644E0	1,095562409E1
1,491555371E0	1,227517962E0	1,079402256E1	1,282552958E0	1,093904317E1
1,492751361E0	1,198804140E0	1,077248764E1	1,299302697E0	1,091658412E1
1,493947350E0	1,172483087E0	1,074377346E1	1,316052437E0	1,088739541E1
1,495143340E0	1,146162033E0	1,072463131E1	1,337587833E0	1,086832762E1
1,496339330E0	1,127019525E0	1,071506023E1	1,361516118E0	1,085985336E1
1,497535319E0	1,107876897E0	1,069591713E1	1,387837172E0	1,084233031E1
1,498731309E0	1,086341500E0	1,067198944E1	1,411765337E0	1,081963853E1
1,499927246E0	1,064806104E0	1,065045357E1	1,438086390E0	1,079972526E1
1,501123236E0	1,045663476E0	1,062413216E1	1,471585870E0	1,077641690E1
1,502319225E0	1,033699393E0	1,059063339E1	1,502692580E0	1,074654061E1
1,503515215E0	1,012163997E0	1,054756260E1	1,526620865E0	1,070542498E1
1,504711205E0	9,786644578E-1	1,050449181E1	1,543370605E0	1,066227579E1
1,505907194E0	9,475577474E-1	1,046620655E1	1,564906001E0	1,062488946E1
1,507103184E0	9,164510965E-1	1,042313576E1	1,591227055E0	1,058364990E1
1,508299173E0	8,901300430E-1	1,038724327E1	1,610369682E0	1,054895468E1
1,509495163E0	8,638089895E-1	1,036092186E1	1,641476393E0	1,052565022E1
1,510691100E0	8,446664214E-1	1,033220863E1	1,679761529E0	1,050188533E1
1,511887090E0	8,327022791E-1	1,029631615E1	1,713261008E0	1,047104496E1
1,513083080E0	8,015955687E-1	1,027478027E1	1,741974831E0	1,045218357E1
1,514279069E0	7,633104324E-1	1,024845982E1	1,782652855E0	1,043031268E1
1,515475059E0	7,417750359E-1	1,020778179E1	1,823330879E0	1,039584411E1
1,516671048E0	7,154539824E-1	1,018385315E1	1,861616015E0	1,037729992E1
1,517867038E0	7,010970116E-1	1,016710377E1	1,897508383E0	1,036639157E1
1,519063028E0	6,939185858E-1	1,014078236E1	1,926222205E0	1,034540100E1
1,520258965E0	6,891329288E-1	1,010488987E1	1,952543259E0	1,031484991E1
1,521454955E0	6,867401004E-1	1,006421185E1	1,976471543E0	1,027941690E1
1,522650944E0	6,843472719E-1	1,003789139E1	2,007578135E0	1,025953043E1
1,523846934E0	6,795616150E-1	1,000199890E1	2,036292076E0	1,022977377E1
1,525042923E0	6,771687865E-1	9,958928108E0	2,057827473E0	1,019183303E1
1,526238913E0	6,819544435E-1	9,930213928E0	2,079362869E0	1,016847877E1
1,527434903E0	6,891329288E-1	9,906285286E0	2,098505497E0	1,014953781E1
1,528630892E0	6,963114142E-1	9,879964828E0	2,129612207E0	1,013083426E1
1,529826830E0	7,058826685E-1	9,844072342E0	2,153540373E0	1,010157249E1
1,531022819E0	7,202396393E-1	9,812965393E0	2,163111687E0	1,007432812E1
1,532218809E0	7,345965505E-1	9,784252167E0	2,170290232E0	1,004894931E1
1,533414798E0	7,345965505E-1	9,745966911E0	2,175075769E0	1,001271480E1
1,534610788E0	7,298108935E-1	9,719645500E0	2,175075769E0	9,986745576E0
1,535806778E0	7,489534616E-1	9,710074425E0	2,175075769E0	9,978849193E0
1,537002767E0	7,680960894E-1	9,690931320E0	2,175075769E0	9,961680383E0
1,538198757E0	7,728816867E-1	9,669396400E0	2,175075769E0	9,941102929E0
1,539394694E0	7,824530005E-1	9,645467758E0	2,179861546E0	9,919630907E0
1,540590684E0	7,944171429E-1	9,626325607E0	2,182254314E0	9,902498533E0
1,541786673E0	8,231309652E-1	9,609575272E0	2,179861546E0	9,888037108E0
1,542982663E0	8,542376757E-1	9,592825890E0	2,187039852E0	9,875989767E0
1,544178653E0	8,805587292E-1	9,580862045E0	2,191825628E0	9,867745477E0
1,545374642E0	9,140582681E-1	9,566504478E0	2,187039852E0	9,855792904E0
1,546570632E0	9,427721500E-1	9,542576790E0	2,187039852E0	9,835280089E0
1,547766569E0	9,714859724E-1	9,516255379E0	2,187039852E0	9,812545273E0
1,548962559E0	1,009771109E0	9,497113228E0	2,177468538E0	9,795721851E0
1,550158548E0	1,050449133E0	9,468399048E0	2,172683001E0	9,771109217E0
1,551354538E0	1,088734269E0	9,422935486E0	2,167897224E0	9,730202149E0
1,552550528E0	1,127019525E0	9,384650230E0	2,165504456E0	9,696970790E0
1,553746517E0	1,167697430E0	9,363115311E0	2,170290232E0	9,682024855E0
1,554942507E0	1,213161111E0	9,336793900E0	2,175075769E0	9,663251772E0
1,556138496E0	1,253839016E0	9,303294182E0	2,167897224E0	9,634478361E0
1,557334486E0	1,289731383E0	9,279366493E0	2,165504456E0	9,615584179E0
1,558530423E0	1,325623751E0	9,257830620E0	2,172683001E0	9,601315406E0
1,559726413E0	1,354337573E0	9,241081238E0	2,184647083E0	9,591897392E0
1,560922403E0	1,390229940E0	9,224330902E0	2,191825628E0	9,582542432E0
1,562118392E0	1,435693622E0	9,205188751E0	2,196611166E0	9,571928580E0
1,563314382E0	1,466800332E0	9,193224907E0	2,201396942E0	9,566244608E0
1,564510371E0	1,497906923E0	9,186046600E0	2,199003935E0	9,563618332E0
1,565706361E0	1,533799291E0	9,176474571E0	2,199003935E0	9,560117370E0
1,566902298E0	1,569691658E0	9,145368576E0	2,196611166E0	9,535554463E0
1,568098288E0	1,598405480E0	9,123832703E0	2,201396942E0	9,520786300E0
1,569294278E0	1,617548108E0	9,116654396E0	2,208575249E0	9,518805276E0
1,570490267E0	1,619940877E0	9,095118523E0	2,199003935E0	9,496368132E0
1,571686257E0	1,627119422E0	9,073583603E0	2,194218397E0	9,475865733E0
1,572882246E0	1,648654819E0	9,042476654E0	2,199003935E0	9,450929322E0
1,574078236E0	1,665404558E0	9,020941734E0	2,194218397E0	9,432155453E0
1,575274225E0	1,677368641E0	9,001798630E0	2,196611166E0	9,416530398E0
1,576470215E0	1,684547186E0	8,970691681E0	2,203789711E0	9,389765575E0
1,577666153E0	1,684547186E0	8,941978455E0	2,215753794E0	9,365161119E0
1,578862142E0	1,689332843E0	8,906085968E0	2,222932339E0	9,333468857E0
1,580058132E0	1,686939955E0	8,879764557E0	2,227717876E0	9,309066115E0
1,581254121E0	1,663011789E0	8,867800713E0	2,234896421E0	9,295066417E0
1,582450111E0	1,641476393E0	8,846264839E0	2,230110645E0	9,269532882E0
1,583646100E0	1,622333765E0	8,824729919E0	2,230110645E0	9,245605361E0
1,584842090E0	1,607976794E0	8,810373306E0	2,237289190E0	9,231128321E0
1,586038080E0	1,593619823E0	8,798408508E0	2,237289190E0	9,217216464E0
1,587234017E0	1,567298889E0	8,784051895E0	2,237289190E0	9,198992142E0
1,588430007E0	1,540977836E0	8,769695282E0	2,239681959E0	9,181412925E0
1,589625996E0	1,517049551E0	8,760123253E0	2,242074728E0	9,168865679E0
1,590821986E0	1,497906923E0	8,752944946E0	2,230110645E0	9,155935991E0
1,592017975E0	1,471585870E0	8,740981102E0	2,206182480E0	9,134416059E0
1,593213965E0	1,435693622E0	8,724231720E0	2,194218397E0	9,109776597E0
1,594409955E0	1,404586911E0	8,709874153E0	2,175075769E0	9,086568481E0
1,595605892E0	1,368694544E0	8,700303078E0	2,143969059E0	9,064502288E0
1,596801882E0	1,332802176E0	8,683553696E0	2,112862349E0	9,035743120E0
1,597997871E0	1,296909928E0	8,652446747E0	2,084148407E0	8,993913756E0
1,599193861E0	1,263410330E0	8,635697365E0	2,043470621E0	8,963662578E0
1,600389850E0	1,234696507E0	8,633303642E0	1,995614052E0	8,946557030E0
1,601585840E0	1,210768223E0	8,628518105E0	1,957328916E0	8,930197134E0
1,602781830E0	1,172483087E0	8,621339798E0	1,931007862E0	8,912407523E0
1,603977819E0	1,110269666E0	8,606983185E0	1,907079697E0	8,885370631E0
1,605173757E0	1,067198873E0	8,592626572E0	1,878365755E0	8,860045301E0
1,606369746E0	1,036092162E0	8,580661774E0	1,852044702E0	8,839191876E0
1,607565736E0	1,000199914E0	8,573483467E0	1,832902193E0	8,824089136E0
1,608761725E0	9,619147182E-1	8,575876236E0	1,813759565E0	8,818200321E0
1,609957715E0	9,332008362E-1	8,573483467E0	1,801795483E0	8,810331976E0
1,611153705E0	9,188438654E-1	8,554341316E0	1,799402595E0	8,789703016E0
1,612349694E0	9,044869542E-1	8,537590981E0	1,787438512E0	8,769463657E0
1,613545684E0	9,020941257E-1	8,520841599E0	1,768295884E0	8,749021985E0
1,614741621E0	9,068797827E-1	8,506484032E0	1,744367719E0	8,730722780E0
1,615937611E0	9,068797827E-1	8,494520187E0	1,725225091E0	8,715257068E0
1,617133600E0	9,044869542E-1	8,494520187E0	1,703689694E0	8,710770829E0
1,618329590E0	8,997012973E-1	8,492127419E0	1,670190215E0	8,701449642E0
1,619525580E0	9,020941257E-1	8,477770805E0	1,641476393E0	8,682212644E0
1,620721569E0	9,044869542E-1	8,453842163E0	1,622333765E0	8,655490212E0
1,621917559E0	8,901300430E-1	8,420342445E0	1,596012712E0	8,616365531E0
1,623113548E0	8,781659007E-1	8,394021988E0	1,562513232E0	8,583252768E0
1,624309538E0	8,733802438E-1	8,374878883E0	1,536192179E0	8,559280097E0
1,625505475E0	8,638089895E-1	8,355736732E0	1,505085468E0	8,534036828E0
1,626701465E0	8,470591903E-1	8,343772888E0	1,476371527E0	8,515616723E0
1,627897455E0	8,374879360E-1	8,324629784E0	1,457229018E0	8,492606401E0
1,629093444E0	8,327022791E-1	8,317451477E0	1,440479279E0	8,482238662E0
1,630289434E0	8,207381964E-1	8,312665939E0	1,421336651E0	8,473147236E0
1,631485423E0	7,968099117E-1	8,312665939E0	1,404586911E0	8,468068578E0
1,632681413E0	7,728816867E-1	8,312665939E0	1,392622828E0	8,463873786E0
1,633877350E0	7,609176040E-1	8,307880402E0	1,383051515E0	8,456518424E0
1,635073340E0	7,537391186E-1	8,303094864E0	1,356730461E0	8,446906210E0
1,636269330E0	7,393822074E-1	8,310273170E0	1,328016520E0	8,448133172E0
1,637465319E0	7,202396393E-1	8,331808090E0	1,304088354E0	8,463948111E0
1,638661309E0	7,010970116E-1	8,343772888E0	1,280160069E0	8,470471819E0
1,639857298E0	6,891329288E-1	8,334200859E0	1,258624673E0	8,456828260E0
1,641053288E0	6,867401004E-1	8,315058708E0	1,232303619E0	8,433883180E0
1,642249278E0	6,891329288E-1	8,298309326E0	1,208375454E0	8,414096095E0
1,643445215E0	6,843472719E-1	8,300702095E0	1,196411371E0	8,414355984E0
1,644641205E0	6,795616150E-1	8,315058708E0	1,182054400E0	8,426105738E0
1,645837194E0	6,843472719E-1	8,317451477E0	1,167697430E0	8,426852767E0
1,647033184E0	6,843472719E-1	8,319844246E0	1,165304661E0	8,428883343E0
1,648229173E0	6,915257573E-1	8,334200859E0	1,148554921E0	8,441344101E0
1,649425163E0	6,987041831E-1	8,343772888E0	1,131805062E0	8,449125176E0
1,650621153E0	7,010970116E-1	8,338987350E0	1,124626637E0	8,443638559E0
1,651817142E0	7,010970116E-1	8,341380119E0	1,112662554E0	8,444416929E0
1,653013080E0	6,867401004E-1	8,358129501E0	1,095912814E0	8,457598100E0
1,654209069E0	6,699903607E-1	8,372486115E0	1,071984529E0	8,467382220E0
1,655405059E0	6,675975323E-1	8,382058144E0	1,048056364E0	8,473665519E0
1,656601048E0	6,604190469E-1	8,391629219E0	1,036092162E0	8,481101416E0
1,657797038E0	6,364908218E-1	8,401200294E0	1,028913736E0	8,487870783E0
1,658993028E0	6,101697683E-1	8,398807526E0	1,014556766E0	8,481839448E0
1,660189017E0	5,934200287E-1	8,403593063E0	1,000199914E0	8,483685730E0
1,661384955E0	5,886343718E-1	8,420342445E0	9,834501147E-1	8,497989848E0
1,662580944E0	5,814558864E-1	8,427521706E0	9,619147182E-1	8,502146374E0
1,663776934E0	5,647061467E-1	8,427521706E0	9,427721500E-1	8,498872540E0
1,664972923E0	5,407779217E-1	8,434700012E0	9,332008362E-1	8,503379849E0
1,666168913E0	5,144568682E-1	8,444271088E0	9,260223508E-1	8,510458123E0
1,667364903E0	4,905286431E-1	8,446663857E0	9,140582681E-1	8,510126390E0
1,668560892E0	4,737788737E-1	8,458627701E0	9,068797827E-1	8,520286377E0
1,669756882E0	4,713860750E-1	8,470592499E0	8,973084688E-1	8,531020138E0
1,670952871E0	4,666004181E-1	8,470592499E0	8,925228715E-1	8,530254997E0
1,672148809E0	4,498506486E-1	8,461020470E0	8,949156404E-1	8,520100175E0
1,673344798E0	4,402793646E-1	8,453842163E0	8,949156404E-1	8,512471277E0
1,674540788E0	4,426721931E-1	8,453842163E0	8,925228715E-1	8,512344158E0
1,675736778E0	4,450650215E-1	8,449056625E0	8,949156404E-1	8,507967721E0
1,676932767E0	4,354937077E-1	8,437092781E0	8,997012973E-1	8,496096268E0
1,678128757E0	4,283152521E-1	8,429914474E0	9,068797827E-1	8,489366463E0
1,679324746E0	4,259224236E-1	8,441878319E0	9,140582681E-1	8,501895199E0
1,680520736E0	4,331009090E-1	8,451449394E0	9,164510965E-1	8,512018320E0
1,681716673E0	4,378865361E-1	8,461020470E0	9,092726111E-1	8,520996930E0
1,682912663E0	4,426721931E-1	8,468199730E0	9,068797827E-1	8,528117980E0
1,684108653E0	4,618147612E-1	8,475378036E0	9,164510965E-1	8,537282258E0
1,685304642E0	4,833501875E-1	8,477770805E0	9,236295223E-1	8,541622605E0
1,686500632E0	4,905286431E-1	8,470592499E0	9,212366939E-1	8,534648949E0
1,687696621E0	4,977070987E-1	8,461020470E0	9,068797827E-1	8,524025498E0
1,688892611E0	5,120640397E-1	8,463413239E0	8,877372146E-1	8,525236102E0
1,690088600E0	5,216353536E-1	8,461020470E0	8,853443861E-1	8,523192214E0
1,691284538E0	5,335994363E-1	8,453842163E0	8,973084688E-1	8,518059530E0
1,692480528E0	5,288137794E-1	8,449056625E0	9,092726111E-1	8,514280859E0
1,693676517E0	5,288137794E-1	8,451449394E0	9,236295223E-1	8,518200066E0
1,694872507E0	5,383850932E-1	8,456234932E0	9,332008362E-1	8,524589816E0
1,696068496E0	5,383850932E-1	8,449056625E0	9,284151793E-1	8,516946114E0
1,697264486E0	5,359922647E-1	8,432307243E0	9,188438654E-1	8,499139204E0
1,698460475E0	5,335994363E-1	8,415556908E0	9,260223508E-1	8,483150583E0
1,699656465E0	5,359922647E-1	8,408378601E0	9,403793216E-1	8,477761006E0
1,700852403E0	5,288137794E-1	8,405985832E0	9,451649189E-1	8,475469223E0
1,702048392E0	5,288137794E-1	8,410771370E0	9,547362328E-1	8,481287657E0
1,703244382E0	5,335994363E-1	8,422736168E0	9,738788009E-1	8,495625511E0
1,704440371E0	5,312066078E-1	8,422736168E0	9,834501147E-1	8,496578084E0
1,705636361E0	5,312066078E-1	8,422736168E0	9,858429432E-1	8,496855378E0
1,706832350E0	5,312066078E-1	8,429914474E0	9,906286001E-1	8,504527237E0
1,708028340E0	5,264210105E-1	8,434700012E0	1,000199914E0	8,510093022E0
1,709224330E0	5,216353536E-1	8,446663857E0	1,007378340E0	8,522502266E0
1,710420267E0	5,216353536E-1	8,468199730E0	1,012163997E0	8,544412564E0
1,711616257E0	5,240281820E-1	8,472985268E0	1,021735311E0	8,550440218E0
1,712812246E0	5,312066078E-1	8,461020470E0	1,028913736E0	8,539889421E0
1,714008236E0	5,288137794E-1	8,458627701E0	1,021735311E0	8,536508047E0
1,715204225E0	5,168496966E-1	8,463413239E0	1,007378340E0	8,538811883E0
1,716400215E0	5,024927258E-1	8,453842163E0	1,002592683E0	8,527903514E0
1,717596205E0	4,953143001E-1	8,446663857E0	9,954141974E-1	8,519525573E0
1,718792194E0	5,144568682E-1	8,441878319E0	9,834501147E-1	8,514525797E0
1,719988132E0	5,264210105E-1	8,437092781E0	9,690931439E-1	8,508865682E0
1,721184121E0	5,168496966E-1	8,446663857E0	9,523434043E-1	8,515880569E0
1,722380111E0	5,000999570E-1	8,458627701E0	9,284151793E-1	8,524109179E0
1,723576100E0	4,929214716E-1	8,482556343E0	9,020941257E-1	8,544618628E0
1,724772090E0	4,929214716E-1	8,492127419E0	8,877372146E-1	8,552618139E0
1,725968080E0	4,929214716E-1	8,482556343E0	8,733802438E-1	8,541634899E0
1,727164069E0	4,857429862E-1	8,484949112E0	8,614161611E-1	8,542385234E0
1,728360007E0	4,737788737E-1	8,494520187E0	8,542376757E-1	8,550500666E0
1,729555996E0	4,570291340E-1	8,492127419E0	8,422735929E-1	8,546024136E0
1,730751986E0	4,426721931E-1	8,501698494E0	8,279166222E-1	8,553378390E0
1,731947975E0	4,354937077E-1	8,525627136E0	8,207381964E-1	8,576105411E0
1,733143965E0	4,378865361E-1	8,547162056E0	8,111668825E-1	8,596727025E0
1,734339955E0	4,331009090E-1	8,573483467E0	8,015955687E-1	8,621760297E0
1,735535944E0	4,115654826E-1	8,595019341E0	7,992027402E-1	8,641901910E0
1,736731934E0	3,900300860E-1	8,616554260E0	7,944171429E-1	8,661883709E0
1,737927871E0	3,828516304E-1	8,642875671E0	7,896314859E-1	8,687312192E0
1,739123861E0	3,732803464E-1	8,657232285E0	7,848458290E-1	8,700746636E0
1,740319850E0	3,828516304E-1	8,666803360E0	7,872386575E-1	8,710901248E0
1,741515840E0	3,876372576E-1	8,678768158E0	7,824530005E-1	8,722586318E0
1,742711830E0	3,876372576E-1	8,683553696E0	7,752745152E-1	8,726707168E0
1,743907819E0	3,900300860E-1	8,690732002E0	7,776673436E-1	8,734169262E0
1,745103809E0	3,972085714E-1	8,700303078E0	7,752745152E-1	8,743803455E0
1,746299798E0	4,139583111E-1	8,693124771E0	7,680960894E-1	8,736804414E0
1,747495736E0	4,211367965E-1	8,685946465E0	7,633104324E-1	8,729585615E0
1,748691725E0	4,283152521E-1	8,695517540E0	7,680960894E-1	8,739877050E0
1,749887715E0	4,235295951E-1	8,714659691E0	7,657032609E-1	8,758480024E0
1,751083705E0	4,091726840E-1	8,736195564E0	7,657032609E-1	8,779227569E0
1,752279694E0	4,067798555E-1	8,755337715E0	7,704889178E-1	8,798582927E0
1,753475684E0	3,996013701E-1	8,764909744E0	7,704889178E-1	8,807779360E0
1,754671673E0	3,924229145E-1	8,774480820E0	7,776673436E-1	8,817611689E0
1,755867663E0	3,828516304E-1	8,788837433E0	7,968099117E-1	8,833184297E0
1,757063600E0	3,708875179E-1	8,803194046E0	8,255237937E-1	8,849591657E0
1,758259590E0	3,589234054E-1	8,812766075E0	8,494520187E-1	8,860882611E0
1,759455580E0	3,445664644E-1	8,843872070E0	8,638089895E-1	8,892635448E0
1,760651569E0	3,445664644E-1	8,870193481E0	8,781659007E-1	8,920214896E0
1,761847559E0	3,565305769E-1	8,882157326E0	8,901300430E-1	8,933765405E0
1,763043548E0	3,684946895E-1	8,879764557E0	8,949156404E-1	8,932350246E0
1,764239538E0	3,708875179E-1	8,872586250E0	9,020941257E-1	8,926035970E0
1,765435528E0	3,804588020E-1	8,860622406E0	9,092726111E-1	8,915276496E0
1,766631465E0	3,972085714E-1	8,851051331E0	9,212366939E-1	8,907724813E0
1,767827455E0	4,043870270E-1	8,855836868E0	9,308080077E-1	8,913797118E0
1,769023444E0	4,115654826E-1	8,858229637E0	9,355936646E-1	8,917003642E0
1,770219434E0	4,187439680E-1	8,855836868E0	9,332008362E-1	8,914710144E0
1,771415423E0	4,259224236E-1	8,853444099E0	9,332008362E-1	8,912673344E0
1,772611413E0	4,211367965E-1	8,848658562E0	9,403793216E-1	8,908446992E0
1,773807403E0	4,091726840E-1	8,851051331E0	9,451649189E-1	8,910772619E0
1,775003392E0	3,996013701E-1	8,858229637E0	9,643075466E-1	8,919518070E0
1,776199330E0	3,948157430E-1	8,860622406E0	9,906286001E-1	8,924564635E0
1,777395319E0	3,972085714E-1	8,846264839E0	1,024128079E0	8,914202969E0
1,778591309E0	3,852444589E-1	8,836693764E0	1,062413216E0	8,908663862E0
1,779787298E0	3,637090325E-1	8,841479301E0	1,098305583E0	8,916855704E0
1,780983288E0	3,445664644E-1	8,848658562E0	1,131805062E0	8,927399794E0
1,782179278E0	3,254238665E-1	8,843872070E0	1,165304661E0	8,926248307E0
1,783375267E0	3,182454109E-1	8,839086533E0	1,208375454E0	8,926976090E0
1,784571205E0	3,014956415E-1	8,836693764E0	1,249053478E0	8,929624342E0
1,785767194E0	2,919243574E-1	8,839086533E0	1,284945726E0	8,936764296E0
1,786963184E0	2,991028428E-1	8,836693764E0	1,316052437E0	8,939161773E0
1,788159173E0	2,967100143E-1	8,834300995E0	1,342373490E0	8,940630710E0
1,789355163E0	2,943171859E-1	8,831908226E0	1,373480201E0	8,942911907E0
1,790551153E0	3,038884699E-1	8,831908226E0	1,395015597E0	8,946564683E0
1,791747715E0	3,134597540E-1	8,829515457E0	1,414158225E0	8,947538416E0
1,792943132E0	3,182454109E-1	8,827122688E0	1,442872047E0	8,949930438E0
1,794139069E0	3,182454109E-1	8,824729919E0	1,471585870E0	8,952245711E0
1,795335059E0	3,206382394E-1	8,824729919E0	1,490728498E0	8,955497668E0
1,796531048E0	3,397808075E-1	8,822337151E0	1,502692580E0	8,955845509E0
1,797727038E0	3,661018610E-1	8,819944382E0	1,512263894E0	8,956137089E0
1,798923028E0	3,828516304E-1	8,819944382E0	1,524227977E0	8,958865173E0
1,800119017E0	3,996013701E-1	8,824729919E0	1,533799291E0	8,965939977E0
1,801315007E0	4,187439680E-1	8,843872070E0	1,533799291E0	8,985653007E0
1,802510996E0	4,307080805E-1	8,863015175E0	1,536192179E0	9,005466887E0
1,803706934E0	4,402793646E-1	8,886942863E0	1,550549030E0	9,031932333E0
1,804902975E0	4,570291340E-1	8,906085968E0	1,562513232E0	9,053656195E0
1,806098913E0	4,618147612E-1	8,920442581E0	1,572084427E0	9,069675747E0
1,807294903E0	4,570291340E-1	8,949156761E0	1,579262972E0	9,098920480E0
1,808490892E0	4,498506486E-1	8,982656479E0	1,586441398E0	9,132758583E0
1,809686882E0	4,378865361E-1	9,011369705E0	1,593619823E0	9,161667573E0
1,810882871E0	4,307080805E-1	9,030512810E0	1,607976794E0	9,182660858E0
1,812078861E0	4,235295951E-1	9,059226990E0	1,619940877E0	9,212664078E0
1,813274798E0	4,091726840E-1	9,090332985E0	1,631905079E0	9,244711475E0
1,814470788E0	4,115654826E-1	9,109476089E0	1,653440475E0	9,267459532E0
1,815666778E0	4,115654826E-1	9,119047165E0	1,665404558E0	9,279007473E0
1,816862767E0	3,996013701E-1	9,119047165E0	1,665404558E0	9,278484510E0
1,818058757E0	4,019941986E-1	9,128618240E0	1,658226132E0	9,286710086E0
1,819254746E0	4,067798555E-1	9,150154114E0	1,651047587E0	9,306811930E0
1,820450736E0	4,115654826E-1	9,164510727E0	1,639083505E0	9,319025579E0
1,821646725E0	4,235295951E-1	9,171689034E0	1,627119422E0	9,324525439E0
1,822842663E0	4,354937077E-1	9,178867340E0	1,612762451E0	9,329644320E0
1,824038653E0	4,498506486E-1	9,200403214E0	1,600798368E0	9,349456685E0
1,825234642E0	4,642075896E-1	9,224330902E0	1,598405480E0	9,373295544E0
1,826430632E0	4,642075896E-1	9,248259544E0	1,598405480E0	9,396844862E0
1,827626621E0	4,642075896E-1	9,272188187E0	1,588834286E0	9,418776823E0
1,828822611E0	4,713860750E-1	9,291330338E0	1,567298889E0	9,434375977E0
1,830018600E0	4,737788737E-1	9,315258980E0	1,545763373E0	9,454517475E0
1,831214590E0	4,809573591E-1	9,339186668E0	1,512263894E0	9,473049651E0
1,832410580E0	4,809573591E-1	9,365508080E0	1,466800332E0	9,491868350E0
1,833606517E0	4,713860750E-1	9,406186104E0	1,418943882E0	9,524281789E0
1,834802507E0	4,498506486E-1	9,454042435E0	1,371087432E0	9,563533066E0
1,835998496E0	4,115654826E-1	9,494720459E0	1,323230863E0	9,595313578E0
1,837194486E0	3,972085714E-1	9,528220177E0	1,272981644E0	9,621082925E0
1,838390475E0	3,900300860E-1	9,556933403E0	1,220339537E0	9,642423353E0
1,839586465E0	3,828516304E-1	9,573683739E0	1,170090318E0	9,652518172E0
1,840782455E0	3,900300860E-1	9,592825890E0	1,136590719E0	9,667795534E0
1,841978392E0	3,948157430E-1	9,619147301E0	1,107876897E0	9,690782501E0
1,843174382E0	4,043870270E-1	9,633503914E0	1,074377418E0	9,701660340E0
1,844370371E0	4,259224236E-1	9,652647018E0	1,043270707E0	9,718200355E0
1,845566361E0	4,378865361E-1	9,683753014E0	1,019342422E0	9,747095774E0
1,846762350E0	4,450650215E-1	9,707681656E0	9,954141974E-1	9,768726398E0
1,847958340E0	4,618147612E-1	9,719645500E0	9,619147182E-1	9,778039755E0
1,849154330E0	4,809573591E-1	9,719645500E0	9,212366939E-1	9,775045047E0
1,850350319E0	4,929214716E-1	9,729216576E0	8,853443861E-1	9,781843458E0
1,851546257E0	5,024927258E-1	9,762716293E0	8,494520187E-1	9,812476604E0
1,852742246E0	5,264210105E-1	9,793823242E0	8,207381964E-1	9,842240800E0
1,853938236E0	5,383850932E-1	9,815358162E0	7,872386575E-1	9,861585018E0
1,855134225E0	5,455635786E-1	9,836894035E0	7,609176040E-1	9,881352108E0
1,856330215E0	5,623133183E-1	9,865608215E0	7,465606928E-1	9,909781763E0
1,857526205E0	5,838487148E-1	9,889535904E0	7,178468108E-1	9,932728918E0
1,858722194E0	5,862415433E-1	9,906285286E0	6,891329288E-1	9,947515846E0
1,859918184E0	5,718846321E-1	9,930213928E0	6,699903607E-1	9,969206978E0
1,861114121E0	5,718846321E-1	9,956535339E0	6,484549642E-1	9,994005295E0
1,862310111E0	5,790630579E-1	9,980463028E0	6,364908218E-1	1,001748855E1
1,863506100E0	5,766702294E-1	9,999606133E0	6,197410822E-1	1,003537495E1
1,864702090E0	5,718846321E-1	1,002831936E1	6,053841114E-1	1,006283912E1
1,865898080E0	5,790630579E-1	1,005703354E1	6,005984545E-1	1,009157848E1
1,867094069E0	5,934200287E-1	1,007378292E1	5,958128572E-1	1,010882004E1
1,868290059E0	5,958128572E-1	1,009053326E1	5,910272002E-1	1,012537246E1
1,869486048E0	6,149554253E-1	1,010967541E1	5,886343718E-1	1,014545206E1
1,870681986E0	6,412764788E-1	1,012403297E1	5,910272002E-1	1,016152510E1
1,871877975E0	6,628118753E-1	1,013121128E1	5,838487148E-1	1,016964311E1
1,873073965E0	6,843472719E-1	1,013838959E1	5,647061467E-1	1,017713946E1
1,874269955E0	7,034898400E-1	1,013360405E1	5,359922647E-1	1,017212449E1
1,875465944E0	7,202396393E-1	1,011685371E1	5,072783828E-1	1,015513691E1
1,876661934E0	7,226324677E-1	1,011206818E1	4,809573591E-1	1,014925812E1
1,877857923E0	7,393822074E-1	1,011924744E1	4,546363056E-1	1,015640433E1
1,879053913E0	7,633104324E-1	1,012164021E1	4,307080805E-1	1,015951538E1
1,880249850E0	7,848458290E-1	1,013121128E1	4,043870270E-1	1,016960933E1
1,881445840E0	7,944171429E-1	1,014317513E1	3,708875179E-1	1,018099493E1
1,882641830E0	8,063812256E-1	1,015035343E1	3,326023519E-1	1,018776471E1
1,883837819E0	8,303094506E-1	1,016471100E1	3,062812984E-1	1,020316479E1
1,885033809E0	8,518448472E-1	1,017906761E1	2,823530734E-1	1,021855079E1
1,886229798E0	8,685946465E-1	1,019581699E1	2,584248483E-1	1,023601115E1
1,887425788E0	8,853443861E-1	1,022213840E1	2,464607358E-1	1,026336646E1
1,888621725E0	9,044869542E-1	1,024845982E1	2,344966233E-1	1,029096759E1
1,889817715E0	9,212366939E-1	1,027717304E1	2,225325108E-1	1,032077921E1
1,891013705E0	9,403793216E-1	1,030349445E1	2,201396823E-1	1,034866043E1
1,892209694E0	9,667003751E-1	1,032502937E1	2,201396823E-1	1,037252152E1
1,893405684E0	1,024128079E0	1,033938694E1	2,249253243E-1	1,039241801E1
1,894601673E0	1,095912814E0	1,034417248E1	2,344966233E-1	1,040470652E1
1,895797663E0	1,158126116E0	1,034656525E1	2,512463629E-1	1,041421112E1
1,896993653E0	1,217946768E0	1,035135078E1	2,823530734E-1	1,042658049E1
1,898189642E0	1,270588875E0	1,035613632E1	3,158525825E-1	1,043856879E1
1,899385632E0	1,313659668E0	1,037288570E1	3,373879790E-1	1,046118015E1
1,900581569E0	1,368694544E0	1,038485050E1	3,589234054E-1	1,048080487E1
1,901777559E0	1,409372568E0	1,039920712E1	3,804588020E-1	1,050117082E1
1,902973548E0	1,442872047E0	1,041835022E1	4,019941986E-1	1,052546913E1
1,904169538E0	1,466800332E0	1,043031406E1	4,115654826E-1	1,054098386E1
1,905365528E0	1,485942841E0	1,043988514E1	4,259224236E-1	1,055370256E1
1,906561517E0	1,502692580E0	1,045184898E1	4,450650215E-1	1,056869505E1
1,907757507E0	1,514656782E0	1,046859932E1	4,594219327E-1	1,058757883E1
1,908953444E0	1,505085468E0	1,049252701E1	4,785645306E-1	1,061072237E1
1,910149434E0	1,478764415E0	1,052602673E1	5,144568682E-1	1,064183484E1
1,911345423E0	1,459621787E0	1,055952644E1	5,455635786E-1	1,067388093E1
1,912541413E0	1,450050473E0	1,057388306E1	5,647061467E-1	1,068777537E1
1,913737403E0	1,450050473E0	1,057866859E1	5,886343718E-1	1,069380035E1
1,914933392E0	1,442872047E0	1,058345413E1	6,149554253E-1	1,069904441E1
1,916129382E0	1,435693622E0	1,058345413E1	6,293123364E-1	1,069891357E1
1,917325371E0	1,435693622E0	1,058584690E1	6,388836503E-1	1,070184765E1
1,918521309E0	1,430907965E0	1,058824062E1	6,604190469E-1	1,070488162E1
1,919717298E0	1,423729420E0	1,057627583E1	6,795616150E-1	1,069328854E1
1,920913288E0	1,423729420E0	1,056191921E1	6,915257573E-1	1,067985725E1
1,922109278E0	1,411765337E0	1,054756260E1	7,082754970E-1	1,066516818E1
1,923305267E0	1,385444283E0	1,053799057E1	7,130611539E-1	1,065256576E1
1,924501257E0	1,375872970E0	1,053081226E1	7,130611539E-1	1,064422330E1
1,925697246E0	1,368694544E0	1,051167011E1	7,250252366E-1	1,062516799E1
1,926893184E0	1,335195065E0	1,049491978E1	7,298108935E-1	1,060465515E1
1,928089173E0	1,294517040E0	1,047577763E1	7,393822074E-1	1,058132210E1
1,929285163E0	1,258624673E0	1,045424175E1	7,609176040E-1	1,055719197E1
1,930481153E0	1,225125194E0	1,043509960E1	7,896314859E-1	1,053640135E1
1,931677142E0	1,208375454E0	1,042313576E1	8,279166222E-1	1,052555824E1
1,932873132E0	1,191625714E0	1,041117096E1	8,757730722E-1	1,051567549E1
1,934069121E0	1,155733347E0	1,040159988E1	9,164510965E-1	1,050565954E1
1,935265111E0	1,117448211E0	1,038724327E1	9,523434043E-1	1,049049433E1
1,936461100E0	1,086341500E0	1,037767220E1	9,978070259E-1	1,048197677E1
1,937657038E0	1,067198873E0	1,037527943E1	1,050449133E0	1,048278494E1
1,938853028E0	1,057627559E0	1,037049294E1	1,105484009E0	1,048273794E1
1,940049017E0	1,036092162E0	1,036810017E1	1,155733347E0	1,048364000E1
1,941245007E0	1,004985452E0	1,036570740E1	1,191625714E0	1,048226395E1
1,942440996E0	9,786644578E-1	1,036331463E1	1,208375454E0	1,047932467E1
1,943636986E0	9,643075466E-1	1,037288570E1	1,210768223E0	1,048773601E1
1,944832975E0	9,403793216E-1	1,038724327E1	1,210768223E0	1,049976646E1
1,946028913E0	8,997012973E-1	1,040399265E1	1,205982566E0	1,051222714E1
1,947224903E0	8,566305041E-1	1,043031406E1	1,198804140E0	1,053386912E1
1,948420892E0	8,183453679E-1	1,044945621E1	1,184447169E0	1,054816285E1
1,949616882E0	7,848458290E-1	1,046620655E1	1,172483087E0	1,056087966E1
1,950812871E0	7,489534616E-1	1,048295593E1	1,167697430E0	1,057434696E1
1,952008861E0	7,082754970E-1	1,049731255E1	1,162911773E0	1,058525336E1
1,953204850E0	6,795616150E-1	1,051406288E1	1,160519004E0	1,059972295E1
1,954400840E0	6,580262184E-1	1,053081226E1	1,158126116E0	1,061471910E1
1,955596778E0	6,364908218E-1	1,054516983E1	1,146162033E0	1,062635472E1
1,956792767E0	6,364908218E-1	1,055713367E1	1,119840980E0	1,063542363E1
1,957988757E0	6,436693072E-1	1,057627583E1	1,086341500E0	1,065138763E1
1,959184746E0	6,388836503E-1	1,058824062E1	1,050449133E0	1,065938343E1
1,960380736E0	6,340979934E-1	1,060020447E1	9,882357717E-1	1,066503750E1
1,961576725E0	6,293123364E-1	1,061456108E1	9,212366939E-1	1,067303228E1
1,962772715E0	6,221339107E-1	1,062413216E1	8,542376757E-1	1,067656109E1
1,963968705E0	6,173482537E-1	1,062891865E1	7,872386575E-1	1,067589693E1
1,965164642E0	6,149554253E-1	1,063848972E1	7,274180651E-1	1,068104727E1
1,966360632E0	6,077769399E-1	1,065523911E1	6,628118753E-1	1,069312082E1
1,967556621E0	6,101697683E-1	1,066720295E1	6,077769399E-1	1,070191192E1
1,968752611E0	6,197410822E-1	1,067438221E1	5,599204898E-1	1,070700824E1
1,969948600E0	6,101697683E-1	1,068156052E1	5,120640397E-1	1,071122084E1
1,971144590E0	5,982056856E-1	1,067916775E1	4,689932466E-1	1,070618646E1
1,972340580E0	6,005984545E-1	1,068634605E1	4,354937077E-1	1,071206634E1
1,973536569E0	6,077769399E-1	1,070788097E1	4,067798555E-1	1,073282710E1
1,974732507E0	6,101697683E-1	1,072463131E1	3,828516304E-1	1,074879525E1
1,975928496E0	6,173482537E-1	1,074138069E1	3,589234054E-1	1,076509192E1
1,977124486E0	6,364908218E-1	1,074616623E1	3,302095234E-1	1,077006256E1
1,978320475E0	6,508477330E-1	1,076052380E1	2,943171859E-1	1,078420594E1
1,979516465E0	6,604190469E-1	1,078445148E1	2,727817893E-1	1,080809683E1
1,980712455E0	6,771687865E-1	1,080120182E1	2,656033039E-1	1,082566688E1
1,981908444E0	6,915257573E-1	1,082991505E1	2,608176768E-1	1,085510450E1
1,983104434E0	7,250252366E-1	1,085862923E1	2,727817893E-1	1,088622525E1
1,984300371E0	7,657032609E-1	1,088255692E1	2,967100143E-1	1,091349547E1
1,985496361E0	7,944171429E-1	1,090648556E1	3,397808075E-1	1,094065706E1
1,986692350E0	8,207381964E-1	1,093041420E1	3,900300860E-1	1,096812150E1
1,987888340E0	8,398807645E-1	1,093998528E1	4,402793646E-1	1,098100740E1
1,989084330E0	8,566305041E-1	1,095194912E1	4,929214716E-1	1,099645292E1
1,990280319E0	8,757730722E-1	1,097827053E1	5,599204898E-1	1,102737110E1
1,991476309E0	8,973084688E-1	1,101416302E1	6,340979934E-1	1,106883145E1
1,992672298E0	9,164510965E-1	1,105005455E1	6,891329288E-1	1,110938758E1
1,993868236E0	9,403793216E-1	1,107637596E1	7,369893789E-1	1,114062705E1
1,995064225E0	9,547362328E-1	1,110748291E1	7,848458290E-1	1,117603153E1
1,996260215E0	9,619147182E-1	1,113380337E1	8,398807645E-1	1,120679513E1
1,997456205E0	9,858429432E-1	1,116012478E1	9,068797827E-1	1,124022697E1
1,998652194E0	1,014556766E0	1,119841003E1	9,738788009E-1	1,128637022E1
1,999848184E0	1,028913736E0	1,122951698E1	1,033699393E0	1,132383546E1
2,001044173E0	1,045663476E0	1,125583744E1	1,105484009E0	1,135822977E1
2,002240163E0	1,057627559E0	1,128215885E1	1,189232826E0	1,139385620E1
2,003436100E0	1,067198873E0	1,129412270E1	1,265803218E0	1,141483152E1
2,004632090E0	1,071984529E0	1,131087303E1	1,337587833E0	1,144002364E1
2,005828080E0	1,069591761E0	1,133719349E1	1,418943882E0	1,147559953E1
2,007024069E0	1,074377418E0	1,135155106E1	1,500299811E0	1,150056076E1
2,008220059E0	1,076770186E0	1,137787151E1	1,569691658E0	1,153600131E1
2,009416048E0	1,076770186E0	1,140897846E1	1,641476393E0	1,157664322E1
2,010612038E0	1,076770186E0	1,141854954E1	1,725225091E0	1,159823733E1
2,011808028E0	1,064806104E0	1,141137123E1	1,811366796E0	1,160320021E1
2,013003965E0	1,055234790E0	1,139462185E1	1,907079697E0	1,160120168E1
2,014199955E0	1,060020447E0	1,139940739E1	2,005185366E0	1,162286111E1
2,015395944E0	1,067198873E0	1,140180016E1	2,086541414E0	1,164017248E1
2,016591934E0	1,067198873E0	1,137547874E1	2,165504456E0	1,162883656E1
2,017787923E0	1,067198873E0	1,135633659E1	2,246860504E0	1,162556134E1
2,018983913E0	1,062413216E0	1,133240795E1	2,323430777E0	1,161682067E1
2,020179903E0	1,062413216E0	1,130130100E1	2,388036966E0	1,159960546E1
2,021375892E0	1,071984529E0	1,127258778E1	2,438286304E0	1,158298865E1
2,022571830E0	1,074377418E0	1,124626637E1	2,476571321E0	1,156573385E1
2,023767819E0	1,088734269E0	1,121755219E1	2,519642353E0	1,154848115E1
2,024963809E0	1,100698471E0	1,118405342E1	2,569891453E0	1,152817983E1
2,026159798E0	1,124626637E0	1,115055370E1	2,615355253E0	1,150824557E1
2,027355788E0	1,162911773E0	1,111944675E1	2,658426046E0	1,149180965E1
2,028551778E0	1,196411371E0	1,109073257E1	2,699103832E0	1,147697306E1
2,029747767E0	1,210768223E0	1,105962658E1	2,732603550E0	1,145637036E1
2,030943705E0	1,213161111E0	1,103809071E1	2,761317253E0	1,144273041E1
2,032139694E0	1,217946768E0	1,100459099E1	2,785245657E0	1,141674255E1
2,033335684E0	1,227517962E0	1,096391296E1	2,811566591E0	1,138503819E1
2,034531673E0	1,237089276E0	1,094716358E1	2,833101988E0	1,137529108E1
